accX,accY,accZ
0.30464172,-0.9869995,9.696503
0.28549194,-1.0396729,9.677353
0.27592468,-1.0205231,9.605530000000002
0.26634216,-1.0540466,9.62468
0.2615509,-1.0300903,9.715652
0.27592468,-1.0588226,9.763535
0.27592468,-1.0396729,9.68692
0.27592468,-1.0061493,9.806641
0.2902832,-1.0396729,9.763535
0.3190155,-1.0061493,9.730026
0.30464172,-0.95347595,9.567215
0.31422424,-0.9917908,9.581589
0.30943298,-0.98220825,9.567215
0.29507446,-0.9917908,9.548065
0.25198364,-1.0731964,9.557648
0.28549194,-0.9869995,9.744385
0.25198364,-1.0875549000000002,9.801849
0.25675964,-1.0444641,9.811432000000002
0.26634216,-1.0396729,9.797058
0.32380676,-1.0348816,9.849731
0.27592468,-1.0157318,9.921555
0.28070068,-1.0061493,9.864105
0.26634216,-1.0109406,9.82579
0.31422424,-1.0444641,9.806641
0.29507446,-1.0157318,9.715652
0.26634216,-1.0253143,9.562424
0.29986572,-1.0109406,9.5767975
0.29507446,-1.0205231,9.567215
0.27592468,-1.0492554,9.538483
0.2902832,-1.0348816,9.610306
0.2615509,-1.0779877000000002,9.615097
0.24240112,-1.0636139,9.639038
0.28070068,-1.0348816,9.691711
0.28549194,-1.0157318,9.615097
0.29507446,-1.0253143,9.677353
0.28549194,-0.95347595,9.730026
0.31422424,-0.96784973,9.753967
0.30464172,-0.91996765,9.744385
0.29986572,-0.8768616,9.763535
0.28070068,-0.91038513,9.753967
0.2902832,-0.9151764,9.797058
0.28070068,-0.8960266,9.792267
0.22802734,-0.86250305,9.830582
0.30464172,-0.8864440999999998,9.811432000000002
0.22802734,-0.8577118,9.792267
0.3190155,-0.8050384499999998,9.787491
0.2902832,-0.88165283,9.710876
0.27592468,-0.89123535,9.605530000000002
0.2328186,-0.8864440999999998,9.758759
0.2615509,-0.84814453,9.648621
0.24240112,-0.8577118,9.701294
0.25198364,-0.89123535,9.615097
0.2040863,-0.91038513,9.715652
0.22802734,-0.94869995,9.773117
0.2328186,-0.9151764,9.66777
0.2615509,-0.96784973,9.7348175
0.2328186,-1.0205231,9.768326
0.23760986,-1.0013733,9.639038
0.24240112,-1.0731964,9.691711
0.27113342,-1.0013733,9.691711
0.27113342,-1.0348816,9.615097
0.28070068,-1.0300903,9.639038
0.2615509,-1.0109406,9.691711
0.27592468,-1.0205231,9.682144
0.3190155,-1.0061493,9.672562
0.25675964,-1.0492554,9.672562
0.36210632,-1.0300903,9.672562
0.33816528,-1.0205231,9.682144
0.26634216,-1.0540466,9.725235
0.3190155,-0.96784973,9.701294
0.28549194,-0.972641,9.696503
0.32380676,-0.9869995,9.7827
0.3477478,-0.9008026,9.806641
0.32380676,-1.0013733,9.830582
0.29986572,-0.9343262000000002,9.768326
0.35731506,-0.9439087,9.749176
0.32380676,-0.95347595,9.777908
0.32859802,-0.9151764,9.840149
0.35731506,-0.8960266,9.84494
0.31422424,-0.8768616,9.758759
0.3764801,-0.83377075,9.758759
0.28549194,-0.838562,9.677353
0.29986572,-0.84814453,9.710876
0.33337402,-0.8433532999999999,9.66777
0.31422424,-0.8194122299999999,9.672562
0.34295654,-0.86250305,9.66777
0.32859802,-0.8241882299999999,9.629471
0.30943298,-0.8433532999999999,9.605530000000002
0.3190155,-0.85292053,9.648621
0.29507446,-0.8098297,9.677353
0.3477478,-0.85292053,9.62468
0.30943298,-0.838562,9.696503
0.31422424,-0.83377075,9.643829
0.32380676,-0.8194122299999999,9.710876
0.28549194,-0.8098297,9.763535
0.27592468,-0.89123535,9.710876
0.30464172,-0.8194122299999999,9.672562
0.26634216,-0.8194122299999999,9.715652
0.30464172,-0.8577118,9.749176
0.2615509,-0.8672942999999999,9.777908
0.29507446,-0.9055939,9.715652
0.30464172,-0.8672942999999999,9.682144
0.1993103,-0.8720856,9.672562
0.33816528,-0.85292053,9.672562
0.31422424,-0.9055939,9.797058
0.28070068,-0.84814453,9.792267
0.25675964,-0.84814453,9.672562
0.29986572,-0.8577118,9.7827
0.27113342,-0.9295349,9.811432000000002
0.31422424,-0.8672942999999999,9.753967
0.25198364,-0.89123535,9.792267
0.32859802,-0.9151764,9.797058
0.24240112,-0.85292053,9.758759
0.27592468,-0.8433532999999999,9.787491
0.28549194,-0.85292053,9.715652
0.33337402,-0.8864440999999998,9.706085
0.27113342,-0.8864440999999998,9.691711
0.2615509,-0.8720856,9.744385
0.29507446,-0.9008026,9.773117
0.33816528,-0.86250305,9.68692
0.25675964,-0.79067993,9.715652
0.27592468,-0.8577118,9.696503
0.33816528,-0.814621,9.677353
0.32380676,-0.8577118,9.653412
0.25675964,-0.85292053,9.744385
0.27113342,-0.838562,9.715652
0.30464172,-0.88165283,9.682144
0.32859802,-0.84814453,9.725235
0.33337402,-0.86250305,9.682144
0.31422424,-0.8289795,9.706085
0.30464172,-0.8289795,9.615097
0.2902832,-0.8672942999999999,9.725235
0.3190155,-0.8050384499999998,9.720444
0.28070068,-0.838562,9.662979000000002
0.28549194,-0.8098297,9.658203
0.33337402,-0.7954712,9.749176
0.30464172,-0.8960266,9.773117
0.2902832,-0.8672942999999999,9.66777
0.33816528,-0.7667389,9.7348175
0.3190155,-0.86250305,9.691711
0.30464172,-0.79067993,9.706085
0.31422424,-0.79067993,9.787491
0.27592468,-0.7858887,9.744385
0.25198364,-0.79067993,9.701294
0.32380676,-0.8098297,9.710876
0.2615509,-0.8289795,9.801849
0.28549194,-0.8050384499999998,9.7395935
0.28549194,-0.814621,9.68692
0.28549194,-0.8241882299999999,9.720444
0.28549194,-0.8433532999999999,9.701294
0.30943298,-0.8050384499999998,9.66777
0.29986572,-0.8002472,9.768326
0.27592468,-0.8098297,9.758759
0.3190155,-0.7810974,9.658203
0.35253906,-0.8289795,9.744385
0.28549194,-0.8050384499999998,9.744385
0.28070068,-0.838562,9.82579
0.29986572,-0.8241882299999999,9.82579
0.29986572,-0.7954712,9.672562
0.28549194,-0.77153015,9.763535
0.33337402,-0.8241882299999999,9.720444
0.30464172,-0.7667389,9.753967
0.30943298,-0.7954712,9.797058
0.32859802,-0.814621,9.710876
0.3477478,-0.7858887,9.710876
0.30464172,-0.7954712,9.662979000000002
0.27113342,-0.814621,9.68692
0.32859802,-0.8433532999999999,9.720444
0.32859802,-0.8433532999999999,9.7827
0.32859802,-0.7858887,9.715652
0.2902832,-0.8050384499999998,9.720444
0.31422424,-0.838562,9.749176
0.34295654,-0.8098297,9.682144
0.3477478,-0.814621,9.68692
0.31422424,-0.838562,9.701294
0.38604736,-0.83377075,9.662979000000002
0.30943298,-0.838562,9.701294
0.28070068,-0.8241882299999999,9.758759
0.3477478,-0.83377075,9.730026
0.30464172,-0.83377075,9.715652
0.32859802,-0.8289795,9.672562
0.34295654,-0.8289795,9.682144
0.33337402,-0.8577118,9.677353
0.30464172,-0.8098297,9.643829
0.28070068,-0.8050384499999998,9.682144
0.31422424,-0.8289795,9.662979000000002
0.3477478,-0.8050384499999998,9.753967
0.33816528,-0.83377075,9.696503
0.32380676,-0.814621,9.763535
0.31422424,-0.8720856,9.730026
0.30464172,-0.84814453,9.749176
0.30943298,-0.8433532999999999,9.720444
0.30464172,-0.8241882299999999,9.648621
0.26634216,-0.84814453,9.672562
0.31422424,-0.7858887,9.634262
0.27592468,-0.77153015,9.753967
0.27592468,-0.8433532999999999,9.701294
0.27113342,-0.79067993,9.7348175
0.29986572,-0.8433532999999999,9.7348175
0.34295654,-0.83377075,9.691711
0.32380676,-0.8050384499999998,9.730026
0.28549194,-0.8098297,9.696503
0.2902832,-0.8002472,9.710876
0.2902832,-0.77630615,9.797058
0.28070068,-0.7810974,9.758759
0.31422424,-0.7380065999999998,9.773117
0.30464172,-0.79067993,9.710876
0.32380676,-0.7571564,9.763535
0.30464172,-0.7380065999999998,9.864105
0.30464172,-0.8050384499999998,9.706085
0.3190155,-0.77630615,9.787491
0.32859802,-0.7523651,9.672562
0.30464172,-0.7380065999999998,9.610306
0.2902832,-0.74279785,9.543274
0.2902832,-0.814621,9.619888
0.27592468,-0.7858887,9.552856
0.2615509,-0.7954712,9.591156
0.27592468,-0.85292053,9.744385
0.2615509,-0.86250305,9.84494
0.2902832,-0.8864440999999998,9.945496
0.33337402,-0.8241882299999999,9.979019
0.29507446,-0.8194122299999999,9.979019
0.29986572,-0.8864440999999998,9.921555
0.34295654,-0.8720856,9.811432000000002
0.36210632,-0.85292053,9.658203
0.30464172,-0.7954712,9.600739
0.32380676,-0.8289795,9.495392
0.34295654,-0.8577118,9.591156
0.2902832,-0.86250305,9.50975
0.30464172,-0.8720856,9.5767975
0.2902832,-0.9343262000000002,9.682144
0.29986572,-0.9343262000000002,9.634262
0.30943298,-0.8864440999999998,9.62468
0.30464172,-0.9295349,9.696503
0.3190155,-0.8241882299999999,9.753967
0.27113342,-0.8720856,9.706085
0.30943298,-0.9008026,9.677353
0.3190155,-0.8289795,9.730026
0.2902832,-0.8289795,9.758759
0.36210632,-0.7954712,9.787491
0.29507446,-0.79067993,9.797058
0.29986572,-0.8002472,9.868881
0.26634216,-0.74757385,9.773117
0.24719238,-0.7523651,9.787491
0.31422424,-0.74757385,9.787491
0.26634216,-0.7188568,9.787491
0.31422424,-0.71406555,9.801849
0.27113342,-0.6901245,9.658203
0.34295654,-0.6996918,9.753967
0.29986572,-0.71406555,9.648621
0.27113342,-0.76194763,9.725235
0.30464172,-0.77630615,9.730026
0.28070068,-0.79067993,9.696503
0.28070068,-0.79067993,9.653412
0.25675964,-0.79067993,9.715652
0.28070068,-0.8289795,9.730026
0.26634216,-0.8433532999999999,9.682144
0.2902832,-0.8194122299999999,9.66777
0.29986572,-0.86250305,9.672562
0.24240112,-0.8098297,9.7348175
0.25675964,-0.89123535,9.706085
0.3190155,-0.85292053,9.744385
0.26634216,-0.86250305,9.696503
0.28070068,-0.9008026,9.7348175
0.28549194,-0.89123535,9.7395935
0.28549194,-0.8768616,9.696503
0.30943298,-0.89123535,9.7348175
0.30464172,-0.838562,9.691711
0.32380676,-0.9295349,9.706085
0.29986572,-0.8672942999999999,9.658203
0.30943298,-0.8672942999999999,9.787491
0.29507446,-0.838562,9.749176
0.30943298,-0.8720856,9.720444
0.30943298,-0.8241882299999999,9.816208
0.36210632,-0.83377075,9.787491
0.35253906,-0.8098297,9.792267
0.34295654,-0.8002472,9.806641
0.33816528,-0.814621,9.883255
0.33816528,-0.8050384499999998,9.758759
0.35731506,-0.7571564,9.7348175
0.28070068,-0.77153015,9.744385
0.29986572,-0.7667389,9.758759
0.3190155,-0.7667389,9.730026
0.2902832,-0.77153015,9.710876
0.29507446,-0.74279785,9.662979000000002
0.2040863,-0.74757385,9.643829
0.32380676,-0.7810974,9.648621
0.32380676,-0.7667389,9.648621
0.29507446,-0.74279785,9.7827
0.34295654,-0.77153015,9.691711
0.37168884,-0.7858887,9.706085
0.31422424,-0.7571564,9.615097
0.30464172,-0.7523651,9.658203
0.31422424,-0.77630615,9.68692
0.32859802,-0.74757385,9.696503
0.32380676,-0.7284241,9.586365
0.34295654,-0.74279785,9.66777
0.25675964,-0.73321533,9.66777
0.31422424,-0.7954712,9.758759
0.24240112,-0.8002472,9.725235
0.27592468,-0.8050384499999998,9.691711
0.2615509,-0.8098297,9.801849
0.26634216,-0.7954712,9.753967
0.33816528,-0.8002472,9.662979000000002
0.29507446,-0.7954712,9.7348175
0.2902832,-0.7571564,9.725235
0.29986572,-0.77630615,9.7348175
0.28549194,-0.8098297,9.701294
0.28070068,-0.7571564,9.773117
0.26634216,-0.814621,9.768326
0.31422424,-0.7810974,9.777908
0.28070068,-0.7954712,9.715652
0.23760986,-0.8050384499999998,9.68692
0.2902832,-0.8241882299999999,9.768326
0.31422424,-0.8241882299999999,9.7827
0.30943298,-0.8241882299999999,9.787491
0.2902832,-0.79067993,9.7827
0.32380676,-0.8194122299999999,9.773117
0.2902832,-0.8768616,9.715652
0.32859802,-0.8194122299999999,9.682144
0.30464172,-0.84814453,9.720444
0.27592468,-0.7954712,9.7827
0.31422424,-0.83377075,9.677353
0.32380676,-0.838562,9.730026
0.26634216,-0.8050384499999998,9.648621
0.2615509,-0.838562,9.758759
0.2040863,-0.86250305,9.677353
0.2902832,-0.84814453,9.595947
0.28549194,-0.85292053,9.725235
0.33816528,-0.8433532999999999,9.725235
0.27113342,-0.838562,9.682144
0.19451904,-0.8433532999999999,9.7395935
0.2615509,-0.79067993,9.720444
0.30943298,-0.8002472,9.648621
0.30943298,-0.7954712,9.720444
0.2902832,-0.8194122299999999,9.725235
0.29986572,-0.7667389,9.682144
0.28070068,-0.814621,9.725235
0.27592468,-0.8002472,9.66777
0.26634216,-0.8289795,9.658203
0.30943298,-0.8098297,9.672562
0.30943298,-0.8289795,9.682144
0.2902832,-0.838562,9.706085
0.26634216,-0.838562,9.706085
0.25675964,-0.8289795,9.696503
0.2902832,-0.814621,9.7395935
0.3190155,-0.84814453,9.66777
0.28070068,-0.8002472,9.773117
0.27113342,-0.7954712,9.696503
0.30464172,-0.8720856,9.749176
0.3190155,-0.88165283,9.768326
0.3477478,-0.79067993,9.7348175
0.2902832,-0.8241882299999999,9.662979000000002
0.2902832,-0.7667389,9.787491
0.30464172,-0.85292053,9.730026
0.29986572,-0.8002472,9.7348175
0.25198364,-0.7954712,9.730026
0.30464172,-0.8098297,9.696503
0.32380676,-0.7954712,9.682144
0.28070068,-0.814621,9.730026
0.33337402,-0.8241882299999999,9.744385
0.31422424,-0.8002472,9.768326
0.30464172,-0.83377075,9.720444
0.32380676,-0.84814453,9.66777
0.32380676,-0.8433532999999999,9.792267
0.37168884,-0.814621,9.753967
0.33337402,-0.8002472,9.763535
0.32380676,-0.7810974,9.744385
0.30943298,-0.814621,9.662979000000002
0.28070068,-0.77630615,9.68692
0.30943298,-0.814621,9.706085
0.26634216,-0.8720856,9.777908
0.27592468,-0.7810974,9.749176
0.28070068,-0.83377075,9.797058
0.2615509,-0.84814453,9.7395935
0.28070068,-0.8433532999999999,9.710876
0.32380676,-0.8433532999999999,9.672562
0.31422424,-0.8289795,9.710876
0.31422424,-0.8050384499999998,9.725235
0.32380676,-0.7954712,9.682144
0.28549194,-0.83377075,9.725235
0.29986572,-0.8289795,9.696503
0.27113342,-0.8194122299999999,9.749176
0.29507446,-0.8098297,9.730026
0.33816528,-0.814621,9.66777
0.28549194,-0.8577118,9.7395935
0.30943298,-0.814621,9.682144
0.32380676,-0.8002472,9.715652
0.32380676,-0.79067993,9.653412
0.33816528,-0.8194122299999999,9.773117
0.35253906,-0.8289795,9.715652
0.2902832,-0.8241882299999999,9.730026
0.29507446,-0.8433532999999999,9.701294
0.30943298,-0.86250305,9.744385
0.34295654,-0.8002472,9.753967
0.32859802,-0.8241882299999999,9.725235
0.29986572,-0.8289795,9.706085
0.22802734,-0.8577118,9.691711
0.24719238,-0.8098297,9.706085
0.26634216,-0.7954712,9.648621
0.28549194,-0.8002472,9.768326
0.26634216,-0.7810974,9.7348175
0.24240112,-0.814621,9.758759
0.30464172,-0.8050384499999998,9.7395935
0.25675964,-0.77153015,9.68692
0.29507446,-0.7954712,9.643829
0.27592468,-0.7523651,9.730026
0.2902832,-0.79067993,9.658203
0.27113342,-0.79067993,9.7348175
0.2902832,-0.7380065999999998,9.763535
0.2615509,-0.8050384499999998,9.753967
0.28070068,-0.77630615,9.811432000000002
0.28070068,-0.7523651,9.84494
0.30464172,-0.77153015,9.830582
0.25198364,-0.76194763,9.725235
0.29986572,-0.8050384499999998,9.591156
0.2902832,-0.77153015,9.500183
0.27592468,-0.73321533,9.543274
0.26634216,-0.7858887,9.533691
0.2615509,-0.73321533,9.485809
0.25675964,-0.7571564,9.643829
0.22802734,-0.83377075,9.840149
0.24240112,-0.8768616,9.911987
0.32859802,-0.8194122299999999,10.046051
0.33337402,-0.7810974,10.093948
0.33337402,-0.8002472,9.94072
0.29507446,-0.79067993,9.8736725
0.32859802,-0.814621,9.7348175
0.36210632,-0.7858887,9.595947
0.36210632,-0.76194763,9.471451
0.32380676,-0.8002472,9.490601
0.2902832,-0.8194122299999999,9.437927
0.29986572,-0.8433532999999999,9.548065
0.33816528,-0.8577118,9.648621
0.30943298,-0.84814453,9.605530000000002
0.28070068,-0.88165283,9.725235
0.32380676,-0.8194122299999999,9.68692
0.3477478,-0.8002472,9.763535
0.35253906,-0.8194122299999999,9.773117
0.32859802,-0.8098297,9.720444
0.32859802,-0.77153015,9.706085
0.33337402,-0.7092743,9.792267
0.34295654,-0.70448303,9.82579
0.32859802,-0.7284241,9.806641
0.28549194,-0.7092743,9.801849
0.26634216,-0.68533325,9.902405000000002
0.29507446,-0.6996918,9.763535
0.2615509,-0.65660095,9.864105
0.22325134,-0.6661835,9.820999
0.29507446,-0.62786865,9.811432000000002
0.24240112,-0.67575073,9.830582
0.23760986,-0.68533325,9.768326
0.26634216,-0.6518097,9.725235
0.27592468,-0.6661835,9.720444
0.2902832,-0.67575073,9.768326
0.29507446,-0.68533325,9.658203
0.30464172,-0.7284241,9.68692
0.25198364,-0.7380065999999998,9.758759
0.30464172,-0.7523651,9.7348175
0.2615509,-0.74757385,9.763535
0.24719238,-0.77153015,9.677353
0.34295654,-0.8050384499999998,9.753967
0.28070068,-0.7523651,9.696503
0.29507446,-0.8241882299999999,9.7395935
0.30464172,-0.83377075,9.653412
0.28549194,-0.8864440999999998,9.619888
0.28549194,-0.8050384499999998,9.706085
0.29507446,-0.8002472,9.7348175
0.27113342,-0.8433532999999999,9.662979000000002
0.31422424,-0.8194122299999999,9.706085
0.29986572,-0.814621,9.710876
0.27592468,-0.814621,9.648621
0.28549194,-0.814621,9.653412
0.27113342,-0.8241882299999999,9.701294
0.3190155,-0.8194122299999999,9.768326
0.32859802,-0.77630615,9.710876
0.3190155,-0.76194763,9.68692
0.32380676,-0.7667389,9.768326
0.34295654,-0.77630615,9.849731
0.30943298,-0.77630615,9.7395935
0.34295654,-0.7188568,9.840149
0.29507446,-0.74757385,9.878464
0.3190155,-0.71406555,9.730026
0.31422424,-0.67575073,9.768326
0.32859802,-0.7188568,9.720444
0.28070068,-0.71406555,9.706085
0.28070068,-0.76194763,9.725235
0.3190155,-0.7092743,9.68692
0.2902832,-0.7667389,9.701294
0.26634216,-0.71406555,9.749176
0.28070068,-0.7284241,9.701294
0.37168884,-0.7284241,9.715652
0.29507446,-0.71406555,9.7395935
0.32859802,-0.7523651,9.706085
0.32380676,-0.7188568,9.706085
0.30943298,-0.71406555,9.725235
0.34295654,-0.68533325,9.68692
0.2902832,-0.7236327999999999,9.730026
0.36210632,-0.7188568,9.715652
0.27592468,-0.7284241,9.66777
0.29986572,-0.7571564,9.7395935
0.28070068,-0.76194763,9.773117
0.33816528,-0.7858887,9.696503
0.30464172,-0.7667389,9.768326
0.28549194,-0.74757385,9.763535
0.28070068,-0.7858887,9.715652
0.29507446,-0.73321533,9.749176
0.2902832,-0.7667389,9.801849
0.33337402,-0.7380065999999998,9.730026
0.30464172,-0.7667389,9.806641
0.24240112,-0.7092743,9.763535
0.31422424,-0.77153015,9.806641
0.30943298,-0.6996918,9.801849
0.29986572,-0.73321533,9.811432000000002
0.28549194,-0.8050384499999998,9.763535
0.32380676,-0.7236327999999999,9.797058
0.29507446,-0.7236327999999999,9.768326
0.29507446,-0.7236327999999999,9.7395935
0.3190155,-0.7284241,9.691711
0.29986572,-0.74757385,9.725235
0.28549194,-0.77153015,9.753967
0.33337402,-0.73321533,9.710876
0.31422424,-0.7523651,9.696503
0.27592468,-0.76194763,9.68692
0.30464172,-0.7092743,9.691711
0.2902832,-0.79067993,9.715652
0.2902832,-0.8194122299999999,9.706085
0.28070068,-0.7571564,9.691711
0.27592468,-0.7858887,9.720444
0.34295654,-0.7667389,9.744385
0.29986572,-0.79067993,9.753967
0.28549194,-0.77153015,9.725235
0.2902832,-0.7380065999999998,9.648621
0.33816528,-0.77630615,9.701294
0.32859802,-0.7523651,9.744385
0.28549194,-0.7667389,9.710876
0.26634216,-0.79067993,9.696503
0.33816528,-0.7571564,9.710876
0.35253906,-0.74279785,9.725235
0.33816528,-0.7667389,9.82579
0.2615509,-0.7571564,9.7827
0.29507446,-0.8050384499999998,9.768326
0.2902832,-0.71406555,9.662979000000002
0.29507446,-0.7236327999999999,9.696503
0.27592468,-0.74279785,9.801849
0.28549194,-0.73321533,9.773117
0.31422424,-0.7523651,9.787491
0.31422424,-0.74757385,9.758759
0.30943298,-0.77630615,9.7348175
0.34295654,-0.7188568,9.730026
0.27592468,-0.74757385,9.672562
0.2902832,-0.77153015,9.682144
0.29507446,-0.73321533,9.7348175
0.27113342,-0.7092743,9.710876
0.3190155,-0.7523651,9.773117
0.27113342,-0.7188568,9.706085
0.33816528,-0.70448303,9.701294
0.28549194,-0.74757385,9.720444
0.30464172,-0.67575073,9.797058
0.32859802,-0.7380065999999998,9.672562
0.32380676,-0.6996918,9.682144
0.3190155,-0.6901245,9.715652
0.25198364,-0.67575073,9.691711
0.22325134,-0.6709595,9.777908
0.29507446,-0.7380065999999998,9.701294
0.28549194,-0.67575073,9.730026
0.25675964,-0.7236327999999999,9.744385
0.31422424,-0.7571564,9.66777
0.30464172,-0.73321533,9.773117
0.28070068,-0.7523651,9.777908
0.25675964,-0.7236327999999999,9.696503
0.27592468,-0.77153015,9.725235
0.29986572,-0.74757385,9.7395935
0.25198364,-0.6996918,9.753967
0.32380676,-0.7523651,9.763535
0.31422424,-0.7236327999999999,9.768326
0.28549194,-0.7523651,9.816208
0.27592468,-0.74279785,9.768326
0.31422424,-0.70448303,9.66777
0.3477478,-0.7380065999999998,9.701294
0.35253906,-0.70448303,9.706085
0.32859802,-0.7858887,9.672562
0.32859802,-0.68533325,9.7395935
0.33816528,-0.7810974,9.859314
0.30464172,-0.8241882299999999,9.753967
0.30943298,-0.74757385,9.701294
0.30464172,-0.76194763,9.744385
0.27592468,-0.7236327999999999,9.720444
0.25198364,-0.7236327999999999,9.710876
0.27113342,-0.7236327999999999,9.696503
0.2902832,-0.73321533,9.777908
0.29986572,-0.7236327999999999,9.768326
0.28070068,-0.7380065999999998,9.753967
0.30943298,-0.7523651,9.768326
0.27592468,-0.7523651,9.744385
0.2615509,-0.7523651,9.777908
0.30464172,-0.7236327999999999,9.763535
0.3477478,-0.6613922,9.787491
0.33337402,-0.680542,9.816208
0.29986572,-0.7284241,9.787491
0.26634216,-0.7092743,9.787491
0.30943298,-0.67575073,9.758759
0.32859802,-0.65660095,9.806641
0.30464172,-0.680542,9.768326
0.3190155,-0.71406555,9.562424
0.2902832,-0.68533325,9.572006
0.22802734,-0.6901245,9.50975
0.2902832,-0.6949158,9.490601
0.24719238,-0.71406555,9.495392
0.21846008,-0.67575073,9.682144
0.22325134,-0.74279785,9.902405000000002
0.24240112,-0.814621,10.055634
0.23760986,-0.83377075,10.074783
0.3812561,-0.7810974,9.998169
0.26634216,-0.8241882299999999,9.897614
0.3190155,-0.74757385,9.811432000000002
0.37168884,-0.7810974,9.701294
0.3764801,-0.71406555,9.552856
0.32380676,-0.7236327999999999,9.46666
0.29507446,-0.77153015,9.42836
0.33337402,-0.8194122299999999,9.581589
0.3190155,-0.79067993,9.495392
0.2328186,-0.8241882299999999,9.543274
0.27113342,-0.77630615,9.653412
0.21846008,-0.8289795,9.691711
0.27592468,-0.7380065999999998,9.835373
0.29507446,-0.7571564,9.878464
0.29986572,-0.6949158,9.835373
0.33816528,-0.74279785,9.777908
0.27113342,-0.7236327999999999,9.7827
0.28549194,-0.6949158,9.730026
0.31422424,-0.6661835,9.773117
0.2328186,-0.68533325,9.706085
0.22802734,-0.6183014,9.801849
0.25198364,-0.64224243,9.7827
0.25675964,-0.6326599,9.715652
0.2328186,-0.6661835,9.777908
0.21366882,-0.62786865,9.720444
0.24719238,-0.6374512,9.787491
0.22802734,-0.6039276,9.763535
0.24240112,-0.64224243,9.730026
0.24240112,-0.6518097,9.744385
0.27592468,-0.67575073,9.66777
0.24240112,-0.6613922,9.62468
0.28549194,-0.680542,9.696503
0.2615509,-0.6996918,9.62468
0.21846008,-0.7284241,9.725235
0.25198364,-0.74279785,9.68692
0.24240112,-0.6949158,9.691711
0.28549194,-0.74757385,9.7395935
0.18493652,-0.8002472,9.691711
0.2902832,-0.7810974,9.677353
0.25198364,-0.8241882299999999,9.753967
0.22325134,-0.7858887,9.696503
0.21846008,-0.79067993,9.7395935
0.24240112,-0.7954712,9.715652
0.23760986,-0.8577118,9.706085
0.22802734,-0.8577118,9.662979000000002
0.2328186,-0.77630615,9.7395935
0.28070068,-0.814621,9.758759
0.2328186,-0.79067993,9.7395935
0.27592468,-0.8002472,9.7395935
0.2902832,-0.8002472,9.749176
0.24719238,-0.74279785,9.753967
0.32859802,-0.7810974,9.662979000000002
0.3190155,-0.77153015,9.710876
0.32859802,-0.7858887,9.720444
0.29986572,-0.76194763,9.749176
0.29507446,-0.79067993,9.773117
0.28549194,-0.71406555,9.787491
0.29507446,-0.67575073,9.820999
0.33816528,-0.7188568,9.801849
0.29986572,-0.7188568,9.777908
0.28549194,-0.6949158,9.763535
0.2902832,-0.7188568,9.787491
0.33337402,-0.6518097,9.66777
0.24719238,-0.6949158,9.66777
0.3190155,-0.6709595,9.725235
0.24240112,-0.67575073,9.701294
0.32380676,-0.68533325,9.744385
0.31422424,-0.6901245,9.730026
0.24719238,-0.73321533,9.730026
0.26634216,-0.6996918,9.749176
0.32859802,-0.7236327999999999,9.749176
0.3190155,-0.7188568,9.701294
0.30943298,-0.6949158,9.629471
0.29986572,-0.6949158,9.643829
0.26634216,-0.6949158,9.658203
0.28549194,-0.7092743,9.677353
0.28549194,-0.7810974,9.68692
0.30464172,-0.7667389,9.710876
0.28070068,-0.7571564,9.725235
0.27113342,-0.7523651,9.691711
0.29507446,-0.7380065999999998,9.763535
0.2615509,-0.7380065999999998,9.787491
0.28549194,-0.74279785,9.773117
0.1993103,-0.7092743,9.730026
0.25675964,-0.6996918,9.758759
0.24719238,-0.7667389,9.792267
0.2615509,-0.7380065999999998,9.7827
0.25198364,-0.77630615,9.749176
0.29507446,-0.7188568,9.82579
0.28070068,-0.7236327999999999,9.811432000000002
0.25198364,-0.76194763,9.744385
0.24240112,-0.7858887,9.792267
0.24240112,-0.7092743,9.763535
0.2902832,-0.74279785,9.7395935
0.2902832,-0.77153015,9.758759
0.2615509,-0.7380065999999998,9.725235
0.24719238,-0.7667389,9.744385
0.22802734,-0.7858887,9.7395935
0.2615509,-0.77630615,9.725235
0.27592468,-0.8098297,9.7348175
0.24719238,-0.7523651,9.619888
0.2615509,-0.7523651,9.658203
0.2328186,-0.7810974,9.710876
0.28070068,-0.77630615,9.696503
0.27113342,-0.7380065999999998,9.725235
0.29986572,-0.79067993,9.648621
0.29507446,-0.7523651,9.682144
0.28549194,-0.8002472,9.7395935
0.28549194,-0.73321533,9.763535
0.25198364,-0.73321533,9.768326
0.30464172,-0.77630615,9.710876
0.23760986,-0.7380065999999998,9.710876
0.29507446,-0.73321533,9.7348175
0.26634216,-0.73321533,9.715652
0.26634216,-0.7667389,9.768326
0.2615509,-0.76194763,9.691711
0.1993103,-0.7380065999999998,9.744385
0.25198364,-0.7810974,9.696503
0.25675964,-0.77630615,9.730026
0.27592468,-0.77153015,9.677353
0.2328186,-0.7092743,9.758759
0.28070068,-0.77153015,9.66777
0.2615509,-0.7523651,9.7395935
0.25675964,-0.7954712,9.68692
0.24719238,-0.8289795,9.758759
0.26634216,-0.7571564,9.768326
0.20887756,-0.8050384499999998,9.840149
0.26634216,-0.8194122299999999,9.682144
0.2902832,-0.7858887,9.7348175
0.25198364,-0.73321533,9.830582
0.2615509,-0.77153015,9.744385
0.28070068,-0.7284241,9.648621
0.30943298,-0.7810974,9.710876
0.22802734,-0.7810974,9.768326
0.26634216,-0.814621,9.763535
0.27113342,-0.74279785,9.749176
0.30943298,-0.7571564,9.768326
0.29986572,-0.74757385,9.744385
0.2902832,-0.7810974,9.758759
0.24240112,-0.7954712,9.715652
0.28070068,-0.77153015,9.720444
0.2615509,-0.7954712,9.763535
0.21846008,-0.7571564,9.758759
0.1993103,-0.73321533,9.710876
0.24719238,-0.814621,9.677353
0.28549194,-0.8098297,9.730026
0.28070068,-0.77630615,9.725235
0.25198364,-0.8241882299999999,9.725235
0.32380676,-0.74279785,9.682144
0.26634216,-0.77153015,9.66777
0.23760986,-0.8098297,9.653412
0.2328186,-0.8050384499999998,9.672562
0.24719238,-0.8002472,9.7395935
0.30943298,-0.77630615,9.753967
0.25198364,-0.8050384499999998,9.763535
0.2615509,-0.8050384499999998,9.792267
0.26634216,-0.8577118,9.787491
0.24240112,-0.7954712,9.849731
0.32380676,-0.7810974,9.816208
0.31422424,-0.8241882299999999,9.82579
0.25198364,-0.7858887,9.682144
0.20887756,-0.8194122299999999,9.715652
0.23760986,-0.8577118,9.595947
0.27113342,-0.8672942999999999,9.586365
0.23760986,-0.8098297,9.471451
0.26634216,-0.7810974,9.600739
0.22325134,-0.86250305,9.634262
0.2328186,-0.9008026,9.840149
0.1993103,-0.88165283,9.935928
0.22802734,-0.89123535,9.935928
0.28070068,-0.8864440999999998,9.94072
0.25675964,-0.84814453,9.911987
0.32859802,-0.8960266,9.835373
0.29986572,-0.85292053,9.763535
0.29986572,-0.7954712,9.701294
0.32859802,-0.8241882299999999,9.567215
0.29986572,-0.84814453,9.586365
0.30464172,-0.84814453,9.528915
0.23760986,-0.8672942999999999,9.552856
0.29986572,-0.9008026,9.581589
0.24719238,-0.89123535,9.557648
0.24240112,-0.8864440999999998,9.658203
0.25675964,-0.9295349,9.643829
0.25675964,-0.91038513,9.691711
0.25198364,-0.9151764,9.758759
0.28549194,-0.9055939,9.715652
0.24240112,-0.85292053,9.773117
0.27113342,-0.86250305,9.725235
0.3190155,-0.79067993,9.68692
0.29507446,-0.8720856,9.677353
0.27592468,-0.83377075,9.715652
0.30464172,-0.8050384499999998,9.672562
0.21846008,-0.8002472,9.777908
0.22325134,-0.7954712,9.820999
0.24719238,-0.7858887,9.730026
0.25198364,-0.7858887,9.787491
0.28070068,-0.838562,9.7827
0.2615509,-0.7667389,9.82579
0.24240112,-0.7810974,9.715652
0.19451904,-0.8241882299999999,9.68692
0.2328186,-0.85292053,9.691711
0.2328186,-0.8098297,9.706085
0.21366882,-0.8720856,9.66777
0.25675964,-0.8960266,9.68692
0.24719238,-0.8864440999999998,9.749176
0.22802734,-0.91996765,9.7348175
0.2040863,-0.9439087,9.730026
0.17536926,-1.0013733,9.792267
0.17536926,-0.98220825,9.7827
0.20887756,-0.99658203,9.7348175
0.18493652,-0.9869995,9.7395935
0.1993103,-0.9869995,9.715652
0.18972778,-0.98220825,9.710876
0.17059326,-1.0205231,9.7348175
0.24719238,-0.99658203,9.662979000000002
0.22802734,-1.0253143,9.706085
0.27592468,-1.0444641,9.648621
0.24719238,-0.99658203,9.672562
0.28549194,-0.99658203,9.7348175
0.24719238,-1.0300903,9.715652
0.30464172,-0.9869995,9.682144
0.25198364,-0.9439087,9.66777
0.26634216,-1.0109406,9.682144
0.25198364,-0.9247589,9.691711
0.3190155,-0.93911743,9.777908
0.22802734,-0.9630585,9.68692
0.28549194,-0.93911743,9.797058
0.31422424,-0.9151764,9.797058
0.27113342,-0.9055939,9.658203
0.27592468,-0.93911743,9.758759
0.31422424,-0.9008026,9.7348175
0.32380676,-0.8864440999999998,9.792267
0.24719238,-0.8864440999999998,9.7827
0.31422424,-0.9439087,9.725235
0.27113342,-0.8577118,9.7348175
0.28070068,-0.8960266,9.682144
0.33816528,-0.8289795,9.634262
0.27592468,-0.9151764,9.763535
0.30943298,-0.91996765,9.66777
0.27592468,-0.8960266,9.701294
0.28070068,-0.9295349,9.706085
0.2615509,-0.89123535,9.643829
0.2328186,-0.95347595,9.715652
0.30943298,-0.9343262000000002,9.643829
0.22802734,-0.9055939,9.605530000000002
0.28549194,-0.9582672,9.658203
0.22802734,-0.96784973,9.701294
0.2615509,-1.0061493,9.725235
0.20887756,-0.9630585,9.7395935
0.25675964,-0.9869995,9.720444
0.21366882,-0.99658203,9.672562
0.25198364,-1.0061493,9.648621
0.19451904,-1.0588226,9.758759
0.21846008,-1.0253143,9.658203
0.23760986,-1.0109406,9.715652
0.27113342,-1.0253143,9.68692
0.21846008,-1.0444641,9.720444
0.2328186,-1.0492554,9.753967
0.30464172,-1.0588226,9.648621
0.26634216,-1.0205231,9.710876
0.2902832,-1.0205231,9.749176
0.29986572,-1.0157318,9.725235
0.26634216,-1.0253143,9.701294
0.27592468,-1.0492554,9.706085
0.2615509,-1.0061493,9.768326
0.2328186,-1.0540466,9.792267
0.30464172,-1.0061493,9.720444
0.24240112,-0.99658203,9.725235
0.25198364,-1.0684052,9.768326
0.2328186,-1.0157318,9.715652
0.25675964,-1.0109406,9.615097
0.2902832,-0.99658203,9.672562
0.22802734,-1.0636139,9.648621
0.25675964,-0.977417,9.696503
0.2328186,-1.0348816,9.66777
0.22802734,-0.99658203,9.696503
0.25675964,-1.0396729,9.610306
0.25198364,-1.0061493,9.682144
0.25675964,-0.9869995,9.672562
0.24240112,-0.98220825,9.696503
0.28070068,-0.9917908,9.758759
0.24240112,-0.99658203,9.725235
0.24719238,-1.0684052,9.725235
0.26634216,-1.0157318,9.66777
0.2615509,-1.0300903,9.706085
0.26634216,-1.0444641,9.725235
0.27592468,-1.0300903,9.696503
0.21366882,-1.0444641,9.797058
0.29986572,-1.0588226,9.672562
0.22802734,-1.0588226,9.725235
0.25675964,-1.0636139,9.7348175
0.25675964,-1.0348816,9.710876
0.27113342,-1.0684052,9.744385
0.22802734,-1.0875549000000002,9.744385
0.24719238,-1.0396729,9.648621
0.24719238,-1.0205231,9.662979000000002
0.165802,-1.0827637,9.725235
0.18014526,-1.0205231,9.763535
0.25198364,-1.1019287,9.763535
0.2615509,-1.0827637,9.753967
0.22802734,-1.1210785,9.710876
0.29986572,-1.0684052,9.773117
0.27113342,-1.0157318,9.68692
0.25675964,-1.0636139,9.658203
0.24719238,-1.1210785,9.696503
0.21846008,-1.1162872,9.639038
0.29507446,-1.0684052,9.758759
0.2615509,-1.0540466,9.658203
0.28549194,-1.0492554,9.691711
0.24719238,-1.0971375,9.715652
0.2328186,-1.0731964,9.672562
0.21366882,-1.0731964,9.615097
0.20887756,-1.1162872,9.662979000000002
0.20887756,-1.0492554,9.629471
0.25198364,-1.0636139,9.653412
0.29507446,-1.0540466,9.682144
0.25675964,-1.0875549000000002,9.634262
0.2328186,-1.0253143,9.552856
0.23760986,-1.0779877000000002,9.691711
0.26634216,-1.0875549000000002,9.768326
0.2902832,-1.0540466,9.753967
0.25198364,-1.0348816,9.777908
0.28070068,-1.0779877000000002,9.730026
0.2902832,-1.0444641,9.720444
0.24240112,-1.0061493,9.773117
0.29507446,-1.0540466,9.811432000000002
0.29986572,-1.0971375,9.763535
0.24240112,-1.0444641,9.634262
0.29986572,-1.0779877000000002,9.581589
0.28070068,-1.130661,9.619888
0.24719238,-1.0827637,9.581589
0.21846008,-1.0875549000000002,9.514542
0.22325134,-1.0827637,9.548065
0.2328186,-1.0636139,9.715652
0.27113342,-1.1210785,9.720444
0.25675964,-1.0971375,9.84494
0.28070068,-1.1402283,9.801849
0.28070068,-1.1210785,9.892822
0.3190155,-1.154602,9.854523
0.25675964,-1.0827637,9.744385
0.28070068,-1.1258698,9.806641
0.28549194,-1.0827637,9.605530000000002
0.31422424,-1.130661,9.548065
0.26634216,-1.1258698,9.557648
0.27113342,-1.0827637,9.572006
0.33337402,-1.1162872,9.648621
0.27592468,-1.1019287,9.567215
0.24719238,-1.1498108,9.543274
0.2902832,-1.1498108,9.691711
0.31422424,-1.1402283,9.619888
0.28549194,-1.1498108,9.653412
0.2902832,-1.1067047,9.706085
0.2902832,-1.1019287,9.658203
0.2902832,-1.1162872,9.720444
0.29986572,-1.0875549000000002,9.7395935
0.33816528,-1.0588226,9.66777
0.27113342,-1.0492554,9.768326
0.2902832,-1.0540466,9.777908
0.29986572,-1.0540466,9.753967
0.27592468,-1.0444641,9.840149
0.29986572,-1.0300903,9.792267
0.21366882,-0.96784973,9.706085
0.24719238,-1.0827637,9.797058
0.27113342,-1.1019287,9.763535
0.25198364,-1.0109406,9.677353
0.2902832,-1.0923462,9.768326
0.24240112,-1.0588226,9.701294
0.19451904,-1.0971375,9.677353
0.27113342,-1.1162872,9.62468
0.18014526,-1.1402283,9.62468
0.22325134,-1.1498108,9.710876
0.14665222,-1.1689606,9.682144
0.18493652,-1.1737518,9.662979000000002
0.23760986,-1.1929016,9.653412
0.19451904,-1.1737518,9.7395935
0.1370697,-1.2168427,9.710876
0.20887756,-1.2407837,9.648621
0.20887756,-1.2216339,9.653412
0.20887756,-1.2359924000000002,9.643829
0.22325134,-1.2312164,9.658203
0.2615509,-1.1737518,9.701294
0.21366882,-1.2216339,9.682144
0.18014526,-1.2120514,9.677353
0.24719238,-1.2407837,9.648621
0.23760986,-1.2312164,9.653412
0.21846008,-1.2647247,9.677353
0.25675964,-1.2168427,9.672562
