accX,accY,accZ
0.14665222,-3.0029144,9.346954
0.1993103,-2.945465,9.232025
0.21366882,-3.0747528,9.246399
0.2040863,-3.060379,9.184143
0.22802734,-3.0555878,9.141052
0.21846008,-3.1322021,9.28949
0.25198364,-3.0939026,9.198517
0.21366882,-3.122635,9.121902
0.22325134,-3.1178436,9.222458
0.21366882,-3.1513672,9.184143
0.18972778,-3.1753082,9.169785
0.12748718,-3.0986938,9.174561
0.165802,-3.122635,9.169785
0.19451904,-3.127411,9.255966
0.1370697,-3.0939026,9.299072
0.14665222,-3.1513672,9.279907
0.13227844,-3.1657257,9.433136
0.18014526,-3.1130524,9.351746
0.1370697,-3.146576,9.380463
0.1370697,-3.1417847,9.318222
0.19451904,-3.1896667,9.375687
0.2328186,-3.1609344,9.255966
0.22802734,-3.146576,9.279907
0.23760986,-3.122635,9.198517
0.1993103,-3.1130524,9.236816
0.17536926,-3.1513672,9.227234
0.14186096,-3.0460205,9.169785
0.20887756,-3.1034698,9.184143
0.18014526,-3.08432,9.203293
0.19451904,-3.0507965,9.217667
0.165802,-3.0986938,9.260757000000002
0.10354614,-3.08432,9.30864
0.165802,-3.108261,9.294281
0.16101074,-3.1322021,9.30864
0.1370697,-3.1992493,9.318222
0.2615509,-3.1561432,9.246399
0.21846008,-3.0891113,9.2846985
0.17059326,-3.127411,9.265549
0.1370697,-3.1322021,9.236816
0.15142822,-3.1609344,9.260757000000002
0.1993103,-3.194458,9.208084
0.15142822,-3.1561432,9.260757000000002
0.11791992,-3.1753082,9.241608
0.21366882,-3.2136078,9.188934
0.20887756,-3.2327576,9.241608
0.1993103,-3.146576,9.232025
0.19451904,-3.24234,9.25119
0.19451904,-3.2231903,9.232025
0.21846008,-3.194458,9.212875
0.2328186,-3.24234,9.327805
0.18014526,-3.2136078,9.126678
0.21366882,-3.2279816,9.188934
0.22325134,-3.170517,9.074005
0.2040863,-3.2136078,9.160202000000002
0.15142822,-3.2040253,9.188934
0.2328186,-3.1800842,9.174561
0.1370697,-3.146576,9.107529
0.13227844,-3.194458,9.102737
0.18972778,-3.1800842,9.188934
0.16101074,-3.1561432,9.227234
0.14665222,-3.2662811,9.255966
0.11312866,-3.2614899,9.222458
0.08918761999999998,-3.2758636,9.222458
0.12748718,-3.2519226,9.184143
0.09875488,-3.2231903,9.227234
0.12748718,-3.2327576,9.232025
0.12748718,-3.2375488,9.28949
0.17536926,-3.1992493,9.236816
0.19451904,-3.24234,9.174561
0.1993103,-3.2710724,9.27034
0.20887756,-3.2950134,9.184143
0.18014526,-3.2758636,9.174561
0.20887756,-3.2902222,9.255966
0.2615509,-3.328537,9.227234
0.24240112,-3.2998047,9.222458
0.26634216,-3.3381042,9.246399
0.2040863,-3.3189545,9.255966
0.18493652,-3.3381042,9.193726
0.15621948,-3.3141632,9.222458
0.19451904,-3.3620453,9.188934
0.17059326,-3.3716278,9.25119
0.14186096,-3.333313,9.27034
0.12748718,-3.2566986,9.136261
0.15621948,-3.2710724,9.208084
0.13227844,-3.2902222,9.155411
0.165802,-3.2998047,9.227234
0.1370697,-3.328537,9.198517
0.15142822,-3.3716278,9.260757000000002
0.21366882,-3.3428955,9.241608
0.17536926,-3.3859863,9.279907
0.17536926,-3.3620453,9.188934
0.1993103,-3.3812103,9.141052
0.1993103,-3.3812103,9.11232
0.2040863,-3.352478,9.155411
0.2040863,-3.3237457,9.102737
0.2328186,-3.3476868,9.097946
0.2040863,-3.357254,9.1458435
0.16101074,-3.328537,9.1506195
0.19451904,-3.3237457,9.107529
0.18493652,-3.3141632,9.184143
0.2040863,-3.304596,9.212875
0.22802734,-3.333313,9.203293
0.23760986,-3.2806396,9.164993
0.23760986,-3.304596,9.203293
0.22802734,-3.3237457,9.246399
0.19451904,-3.304596,9.208084
0.21366882,-3.3476868,9.179352
0.20887756,-3.328537,9.193726
0.22325134,-3.3141632,9.121902
0.2328186,-3.357254,9.155411
0.22802734,-3.352478,9.121902
0.20887756,-3.352478,9.064438
0.23760986,-3.376419,9.054855
0.22325134,-3.4147186,9.11232
0.2040863,-3.4099274,9.121902
0.22325134,-3.3812103,9.155411
0.19451904,-3.3859863,9.09317
0.19451904,-3.4243011,9.11232
0.17059326,-3.3955688,9.088379
0.17536926,-3.41951,9.121902
0.165802,-3.3428955,9.097946
0.21366882,-3.357254,9.141052
0.12748718,-3.3812103,9.1506195
0.18493652,-3.3668365,9.136261
0.17059326,-3.3668365,9.054855
0.16101074,-3.3620453,9.164993
0.165802,-3.4099274,9.160202000000002
0.16101074,-3.3141632,9.232025
0.16101074,-3.40036,9.227234
0.1993103,-3.3907776,9.188934
0.2040863,-3.3955688,9.160202000000002
0.16101074,-3.3955688,9.136261
0.15142822,-3.4482422,9.13147
0.17536926,-3.4482422,9.117111
0.1993103,-3.4769745,9.054855
0.17536926,-3.4243011,9.078796
0.21846008,-3.3907776,9.164993
0.22802734,-3.4147186,9.11232
0.18972778,-3.4578247,9.11232
0.21846008,-3.443451,9.117111
0.17059326,-3.4626007,9.227234
0.20887756,-3.443451,9.155411
0.165802,-3.4147186,9.097946
0.17059326,-3.443451,9.083588
0.18972778,-3.4147186,9.102737
0.1370697,-3.4099274,9.1506195
0.19451904,-3.4290924,9.1458435
0.14665222,-3.3812103,9.164993
0.1370697,-3.4243011,9.1506195
0.16101074,-3.4386597,9.121902
0.13227844,-3.4147186,9.160202000000002
0.18972778,-3.4290924,9.117111
0.18014526,-3.5009155,9.169785
0.18972778,-3.491333,9.121902
0.18014526,-3.4817657,9.169785
0.18972778,-3.4530334,9.1506195
0.12271118,-3.443451,9.045288
0.165802,-3.4865417,9.102737
0.18972778,-3.4865417,9.074005
0.165802,-3.5200653,9.136261
0.17059326,-3.443451,9.050064
0.14665222,-3.4386597,9.11232
0.165802,-3.4482422,9.13147
0.14665222,-3.4338684,9.164993
0.15142822,-3.4769745,9.126678
0.18014526,-3.5009155,9.030914
0.12748718,-3.515274,9.169785
0.08439636,-3.4721832,9.188934
0.12271118,-3.5009155,9.169785
0.10354614,-3.491333,9.212875
0.16101074,-3.4817657,9.255966
0.13227844,-3.4769745,9.203293
0.14186096,-3.4099274,9.241608
0.19451904,-3.40036,9.179352
0.18014526,-3.4243011,9.13147
0.21366882,-3.4051514,9.050064
0.19451904,-3.304596,9.074005
0.2615509,-3.3381042,8.997391
0.16101074,-3.3812103,8.963882
0.15621948,-3.3668365,9.054855
0.14186096,-3.4243011,9.09317
0.19451904,-3.41951,9.11232
0.21846008,-3.4865417,9.13147
0.19451904,-3.4530334,9.160202000000002
0.21846008,-3.4530334,9.1506195
0.16101074,-3.4099274,9.088379
0.18014526,-3.41951,9.136261
0.14665222,-3.3812103,9.011765
0.1370697,-3.3907776,9.174561
0.15142822,-3.40036,9.174561
0.165802,-3.4386597,9.1506195
0.21846008,-3.4769745,9.13147
0.17059326,-3.4099274,9.050064
0.21366882,-3.4290924,9.155411
0.1993103,-3.4338684,9.179352
0.2040863,-3.515274,9.117111
0.24240112,-3.4865417,9.136261
0.25675964,-3.4865417,9.102737
0.26634216,-3.4961243,9.117111
0.24240112,-3.5487976,9.141052
0.24240112,-3.515274,9.164993
0.2328186,-3.5200653,9.203293
0.24240112,-3.5487976,9.126678
0.17536926,-3.5535889,9.102737
0.2328186,-3.539215,9.097946
0.18972778,-3.5104828,9.078796
0.2328186,-3.491333,9.078796
0.15621948,-3.534439,9.09317
0.18972778,-3.5679474,9.160202000000002
0.11312866,-3.601471,9.13147
0.16101074,-3.534439,9.040497
0.18493652,-3.601471,9.069229000000002
0.15621948,-3.5870972,9.078796
0.18014526,-3.5487976,9.069229000000002
0.17059326,-3.5487976,9.030914
0.15621948,-3.5583801,9.054855
0.14665222,-3.5823212,9.030914
0.2040863,-3.57753,9.102737
0.18014526,-3.5104828,9.074005
0.21846008,-3.5296478,9.11232
0.24719238,-3.4769745,9.088379
0.19451904,-3.5535889,9.107529
0.15142822,-3.534439,9.09317
0.20887756,-3.4961243,9.102737
0.2040863,-3.515274,9.107529
0.2040863,-3.5248566,9.1506195
0.22325134,-3.4817657,9.136261
0.18493652,-3.5248566,9.107529
0.15142822,-3.4865417,9.083588
0.18972778,-3.5583801,9.083588
0.19451904,-3.5535889,9.069229000000002
0.19451904,-3.5440063,9.074005
0.25198364,-3.491333,8.973449999999998
0.20887756,-3.5918884,9.021332
0.13227844,-3.5727386,9.1506195
0.16101074,-3.5679474,9.160202000000002
0.1993103,-3.539215,9.141052
0.18972778,-3.4865417,9.1458435
0.22802734,-3.4338684,9.006973
0.20887756,-3.4626007,9.09317
0.21366882,-3.4099274,9.026123
0.20887756,-3.467392,9.050064
0.24240112,-3.443451,9.088379
0.2040863,-3.443451,9.11232
0.22802734,-3.4578247,9.169785
0.17536926,-3.5009155,9.074005
0.22325134,-3.5535889,9.088379
0.20887756,-3.4338684,9.069229000000002
0.17536926,-3.5200653,9.107529
0.1083374,-3.5535889,9.1506195
0.18014526,-3.6062622,9.160202000000002
0.2040863,-3.6206207,9.117111
0.17059326,-3.6445618,9.13147
0.18493652,-3.625412,9.045288
0.18493652,-3.6206207,9.1458435
0.2328186,-3.539215,9.136261
0.21366882,-3.467392,9.13147
0.24719238,-3.515274,9.193726
0.29986572,-3.5440063,9.155411
0.27113342,-3.4817657,9.069229000000002
0.24719238,-3.4769745,9.141052
0.21366882,-3.4817657,9.064438
0.22325134,-3.5057068,9.074005
0.22802734,-3.5440063,9.016556
0.18493652,-3.5440063,9.016556
0.18493652,-3.5631561,9.09317
0.25675964,-3.534439,9.011765
0.17059326,-3.57753,9.054855
0.18972778,-3.5487976,9.050064
0.21366882,-3.5535889,9.097946
0.21846008,-3.57753,9.040497
0.1370697,-3.5870972,9.09317
0.20887756,-3.6302032,9.064438
0.18014526,-3.5727386,9.141052
0.19451904,-3.6302032,9.059647
0.18014526,-3.601471,9.09317
0.17059326,-3.6445618,9.078796
0.21846008,-3.601471,9.09317
0.23760986,-3.5918884,9.054855
0.21846008,-3.6397705,8.973449999999998
0.20887756,-3.6445618,9.09317
0.22325134,-3.6302032,9.074005
0.12748718,-3.6349945,9.064438
0.20887756,-3.6110535,9.078796
0.2040863,-3.6349945,9.059647
0.17536926,-3.6397705,9.059647
0.13227844,-3.6062622,9.083588
0.18972778,-3.5823212,9.035706
0.2040863,-3.5823212,9.050064
0.165802,-3.5679474,9.002181999999998
0.12748718,-3.5583801,9.126678
0.16101074,-3.57753,9.107529
0.12748718,-3.5487976,9.083588
0.13227844,-3.5823212,9.045288
0.09875488,-3.5440063,9.050064
0.15621948,-3.6062622,9.1458435
0.19451904,-3.5727386,9.021332
0.17059326,-3.5487976,8.992615
0.1993103,-3.5200653,8.968674
0.17536926,-3.5679474,9.1458435
0.2328186,-3.5583801,9.188934
0.18014526,-3.649353,9.045288
0.21846008,-3.601471,9.102737
0.25675964,-3.5727386,9.107529
0.21846008,-3.5679474,9.016556
0.20887756,-3.5727386,9.050064
0.25675964,-3.5487976,9.107529
0.24240112,-3.5487976,9.097946
0.24719238,-3.534439,9.050064
0.24240112,-3.5440063,9.011765
0.16101074,-3.5823212,9.136261
0.2040863,-3.5823212,9.136261
0.20887756,-3.601471,9.11232
0.18972778,-3.6110535,9.097946
0.20887756,-3.6110535,9.045288
0.2328186,-3.6302032,8.987823499999998
0.24719238,-3.6302032,9.074005
0.16101074,-3.6349945,9.117111
0.16101074,-3.6302032,9.1506195
0.18014526,-3.6110535,9.074005
0.21846008,-3.5870972,9.059647
0.22325134,-3.6062622,9.169785
0.2328186,-3.5870972,9.184143
0.21846008,-3.5583801,9.11232
0.19451904,-3.6062622,8.987823499999998
0.22325134,-3.57753,9.030914
0.18493652,-3.5727386,9.050064
0.15142822,-3.6158295,9.227234
0.11791992,-3.5679474,9.188934
0.16101074,-3.6110535,9.179352
0.18014526,-3.6110535,9.260757000000002
0.25198364,-3.5679474,9.088379
0.21366882,-3.5248566,9.074005
0.24240112,-3.5440063,9.035706
0.22325134,-3.4865417,8.992615
0.22802734,-3.5440063,9.016556
0.2328186,-3.539215,9.040497
0.25675964,-3.601471,9.059647
0.2328186,-3.5679474,8.978241
0.165802,-3.6349945,8.939941
0.23760986,-3.6828766,9.050064
0.2328186,-3.5823212,9.040497
0.22802734,-3.5631561,9.021332
0.20887756,-3.5966797,9.069229000000002
0.22802734,-3.5440063,9.021332
0.2040863,-3.5535889,9.064438
0.165802,-3.5535889,9.045288
0.19451904,-3.5440063,9.064438
0.16101074,-3.5440063,9.059647
0.17059326,-3.5535889,9.050064
0.15142822,-3.5631561,9.141052
0.15142822,-3.5823212,9.040497
0.14665222,-3.5487976,9.13147
0.1993103,-3.5727386,9.136261
0.18972778,-3.6110535,9.064438
0.22325134,-3.6206207,9.050064
0.25198364,-3.6110535,9.054855
0.21366882,-3.6110535,9.074005
0.22325134,-3.649353,9.088379
0.18493652,-3.6685028,9.069229000000002
0.21366882,-3.6541443,9.016556
0.2040863,-3.5823212,9.054855
0.17536926,-3.6302032,9.054855
0.2040863,-3.6062622,9.050064
0.2040863,-3.5583801,9.026123
0.1993103,-3.6206207,9.045288
0.21366882,-3.6062622,9.083588
0.18014526,-3.625412,8.973449999999998
0.17059326,-3.6445618,9.026123
0.17536926,-3.5440063,9.045288
0.165802,-3.5823212,9.026123
0.17059326,-3.6062622,9.064438
0.15621948,-3.601471,9.030914
0.17536926,-3.6110535,9.011765
0.17059326,-3.6589355,9.035706
0.18493652,-3.673294,8.997391
0.17059326,-3.6445618,9.021332
0.18972778,-3.6589355,9.026123
0.18014526,-3.6302032,9.069229000000002
0.14665222,-3.6206207,9.102737
0.17059326,-3.6397705,9.040497
0.165802,-3.601471,9.11232
0.20887756,-3.5487976,9.069229000000002
0.1993103,-3.5679474,9.121902
0.15621948,-3.57753,9.1506195
0.21366882,-3.5727386,9.11232
0.17536926,-3.5823212,9.083588
0.18014526,-3.515274,9.174561
0.165802,-3.534439,9.059647
0.16101074,-3.5296478,9.045288
0.165802,-3.5009155,9.030914
0.20887756,-3.6062622,9.035706
0.18493652,-3.5966797,9.035706
0.19451904,-3.5918884,9.169785
0.17059326,-3.6445618,9.212875
0.2040863,-3.5583801,9.136261
0.19451904,-3.601471,9.078796
0.19451904,-3.515274,9.045288
0.2328186,-3.5535889,9.107529
0.18493652,-3.57753,9.069229000000002
0.2615509,-3.5823212,8.992615
0.1993103,-3.534439,9.064438
0.16101074,-3.5966797,9.11232
0.17059326,-3.5535889,9.069229000000002
0.165802,-3.5296478,9.121902
0.18014526,-3.57753,9.054855
0.2040863,-3.5631561,9.050064
0.20887756,-3.5679474,9.078796
0.17059326,-3.5440063,9.174561
0.18493652,-3.6302032,9.050064
0.19451904,-3.5823212,9.083588
0.17059326,-3.5823212,9.083588
0.18014526,-3.6349945,9.107529
0.15142822,-3.601471,9.035706
0.19451904,-3.625412,9.078796
0.18972778,-3.6062622,9.083588
0.20887756,-3.5870972,9.016556
0.165802,-3.5870972,9.083588
0.20887756,-3.5823212,9.083588
0.18972778,-3.57753,9.136261
0.17059326,-3.5631561,9.059647
0.2040863,-3.5823212,9.136261
0.14665222,-3.5918884,9.121902
0.17536926,-3.6158295,8.968674
0.17536926,-3.5918884,9.054855
0.16101074,-3.601471,9.107529
0.17536926,-3.6302032,9.069229000000002
0.2040863,-3.6158295,9.117111
0.18493652,-3.601471,9.074005
0.15142822,-3.6685028,9.011765
0.16101074,-3.6541443,9.117111
0.18972778,-3.6206207,9.083588
0.14186096,-3.6828766,9.040497
0.165802,-3.625412,9.050064
0.16101074,-3.6541443,9.1458435
0.16101074,-3.5918884,9.107529
0.16101074,-3.6302032,9.126678
0.14186096,-3.6110535,9.030914
0.18014526,-3.6206207,9.078796
0.13227844,-3.6302032,9.040497
0.17536926,-3.6062622,9.006973
0.20887756,-3.6589355,8.973449999999998
0.19451904,-3.6349945,9.045288
0.14665222,-3.673294,9.021332
0.1370697,-3.6685028,9.011765
0.18493652,-3.6589355,8.997391
0.09875488,-3.6349945,9.045288
0.13227844,-3.5966797,9.026123
0.11312866,-3.5870972,9.083588
0.13227844,-3.5727386,8.930359
0.09875488,-3.5823212,9.026123
0.09397888,-3.625412,9.006973
0.11312866,-3.5200653,9.002181999999998
0.09875488,-3.539215,8.987823499999998
0.17059326,-3.5823212,9.102737
0.1370697,-3.5966797,9.026123
0.17059326,-3.5870972,9.088379
0.15142822,-3.5057068,9.09317
0.15142822,-3.5487976,9.136261
0.16101074,-3.57753,9.040497
0.18972778,-3.5296478,9.074005
0.1370697,-3.5487976,9.107529
0.2040863,-3.5200653,9.026123
0.17536926,-3.5823212,9.050064
0.21366882,-3.5440063,9.040497
0.18014526,-3.5870972,9.1506195
0.18493652,-3.5487976,9.054855
0.12271118,-3.5583801,9.030914
0.11791992,-3.57753,9.045288
0.12271118,-3.673294,9.040497
0.11791992,-3.5918884,9.054855
0.09397888,-3.6110535,9.1458435
0.11312866,-3.5966797,9.016556
0.10354614,-3.601471,9.011765
0.165802,-3.5583801,9.09317
0.16101074,-3.5487976,9.002181999999998
0.08918761999999998,-3.5583801,9.121902
0.1370697,-3.5823212,9.059647
0.1083374,-3.5966797,9.174561
0.12748718,-3.649353,9.236816
0.09875488,-3.5966797,9.097946
0.14665222,-3.6158295,9.117111
0.165802,-3.5440063,9.164993
0.14665222,-3.57753,9.1506195
0.12271118,-3.534439,9.203293
0.17059326,-3.5296478,9.208084
0.18014526,-3.41951,9.136261
0.14186096,-3.4817657,9.174561
0.17059326,-3.491333,9.102737
0.22325134,-3.4865417,8.997391
0.2040863,-3.539215,8.973449999999998
0.17536926,-3.5009155,9.035706
0.2328186,-3.539215,8.987823499999998
0.2615509,-3.5296478,9.074005
0.1993103,-3.515274,9.126678
0.20887756,-3.539215,9.141052
0.22802734,-3.5487976,9.097946
0.20887756,-3.5200653,9.088379
0.16101074,-3.4769745,9.035706
0.1370697,-3.4338684,9.126678
0.13227844,-3.4578247,9.059647
0.17059326,-3.4099274,9.136261
0.14665222,-3.3859863,9.13147
0.1370697,-3.4147186,9.074005
0.15621948,-3.3907776,9.11232
0.14186096,-3.376419,9.083588
0.1993103,-3.4099274,9.160202000000002
0.13227844,-3.4099274,9.011765
0.17536926,-3.4051514,9.097946
0.1993103,-3.4243011,9.13147
0.18972778,-3.41951,9.069229000000002
0.16101074,-3.4386597,9.126678
0.23760986,-3.4865417,9.050064
0.22325134,-3.5057068,9.097946
0.21846008,-3.4817657,9.040497
0.2040863,-3.5440063,9.09317
0.18972778,-3.5440063,9.1458435
0.21366882,-3.5104828,9.102737
0.18014526,-3.4721832,9.1458435
0.17536926,-3.5296478,9.126678
0.20887756,-3.5200653,9.117111
0.17059326,-3.5200653,9.126678
0.22325134,-3.515274,9.107529
0.19451904,-3.5104828,9.117111
0.22325134,-3.515274,9.083588
0.14665222,-3.5248566,9.059647
0.21846008,-3.4817657,9.097946
0.19451904,-3.4530334,9.102737
0.18972778,-3.5009155,9.169785
0.1083374,-3.4961243,9.121902
0.16101074,-3.4817657,9.117111
0.165802,-3.4386597,9.193726
0.18014526,-3.4865417,9.126678
0.15621948,-3.491333,9.069229000000002
0.15621948,-3.4961243,9.107529
0.19451904,-3.5104828,9.13147
0.2328186,-3.5104828,9.141052
0.15621948,-3.4721832,9.083588
0.17059326,-3.4626007,9.160202000000002
0.13227844,-3.491333,9.193726
0.18014526,-3.41951,9.1506195
0.1993103,-3.4338684,9.083588
0.18014526,-3.4243011,9.160202000000002
0.2615509,-3.4147186,9.13147
0.2040863,-3.4482422,9.107529
0.1993103,-3.4530334,9.184143
0.17059326,-3.4051514,9.1458435
0.16101074,-3.376419,9.25119
0.17059326,-3.3428955,9.188934
0.19451904,-3.3812103,9.164993
0.21366882,-3.41951,9.155411
0.16101074,-3.357254,9.141052
0.17059326,-3.2902222,9.212875
0.19451904,-3.40036,9.265549
0.21366882,-3.328537,9.1458435
0.21366882,-3.328537,9.097946
0.2615509,-3.3189545,9.169785
0.18972778,-3.2998047,9.260757000000002
0.21846008,-3.3476868,9.184143
0.25675964,-3.3428955,9.040497
0.1993103,-3.3141632,9.141052
0.1370697,-3.309372,9.126678
0.24719238,-3.357254,9.1458435
0.24240112,-3.2614899,9.160202000000002
0.1993103,-3.304596,9.074005
0.21366882,-3.2806396,9.184143
0.2040863,-3.3237457,9.155411
0.19451904,-3.3189545,9.160202000000002
0.165802,-3.3189545,9.174561
0.16101074,-3.285431,9.227234
0.19451904,-3.2902222,9.27034
0.22325134,-3.2662811,9.236816
0.25675964,-3.2806396,9.160202000000002
0.27113342,-3.3620453,9.208084
0.25675964,-3.285431,9.179352
0.27113342,-3.333313,9.13147
0.2902832,-3.352478,9.1458435
0.30464172,-3.2950134,9.236816
0.2040863,-3.3189545,9.179352
0.30464172,-3.3141632,9.184143
0.21846008,-3.285431,9.217667
0.21846008,-3.328537,9.136261
0.25675964,-3.2806396,9.208084
0.1993103,-3.2950134,9.198517
0.2040863,-3.333313,9.203293
0.17536926,-3.2710724,9.184143
0.14665222,-3.3476868,9.1506195
0.18493652,-3.3141632,9.30864
0.18493652,-3.309372,9.275131
0.17536926,-3.3141632,9.255966
0.18493652,-3.2758636,9.198517
0.19451904,-3.2040253,9.160202000000002
0.20887756,-3.2806396,9.208084
0.21846008,-3.24234,9.174561
0.17536926,-3.218399,9.1506195
0.16101074,-3.2279816,9.155411
0.15142822,-3.2519226,9.208084
0.2040863,-3.2806396,9.117111
0.20887756,-3.285431,9.141052
0.25675964,-3.2375488,9.13147
0.26634216,-3.2998047,9.136261
0.24719238,-3.2662811,9.164993
0.24719238,-3.2231903,9.198517
0.21366882,-3.2327576,9.212875
0.21846008,-3.194458,9.188934
0.20887756,-3.218399,9.198517
0.26634216,-3.2231903,9.208084
0.25675964,-3.1896667,9.255966
0.22802734,-3.1657257,9.155411
0.21846008,-3.2327576,9.227234
0.27113342,-3.170517,9.241608
0.22802734,-3.1561432,9.212875
0.24240112,-3.1417847,9.227234
0.26634216,-3.1369934,9.227234
0.21846008,-3.1322021,9.198517
0.22325134,-3.1657257,9.203293
0.20887756,-3.1896667,9.236816
0.1993103,-3.1130524,9.222458
0.21366882,-3.1513672,9.169785
0.22325134,-3.1417847,9.193726
0.24719238,-3.1417847,9.188934
0.24719238,-3.1513672,9.255966
0.23760986,-3.1322021,9.25119
0.22802734,-3.1561432,9.169785
0.24719238,-3.1322021,9.236816
0.2615509,-3.0891113,9.241608
0.20887756,-3.127411,9.232025
0.21846008,-3.0891113,9.174561
0.22325134,-3.060379,9.255966
0.23760986,-3.0795288,9.198517
0.25675964,-3.0795288,9.222458
0.2615509,-3.0986938,9.27034
0.22325134,-3.2040253,9.217667
0.23760986,-3.127411,9.174561
0.2615509,-3.122635,9.212875
0.22325134,-3.1609344,9.275131
0.26634216,-3.1322021,9.25119
0.25675964,-3.1369934,9.255966
0.27592468,-3.08432,9.30864
0.22802734,-3.122635,9.246399
0.22325134,-3.0986938,9.303848
0.28549194,-3.122635,9.30864
0.28549194,-3.108261,9.2846985
0.28549194,-3.0795288,9.164993
0.2328186,-3.0555878,9.198517
0.22802734,-3.108261,9.236816
0.25198364,-3.1130524,9.232025
0.28549194,-3.0986938,9.198517
0.18493652,-3.0412292,9.323013
0.22802734,-3.0651703,9.318222
0.24240112,-3.036438,9.241608
0.24240112,-3.0555878,9.342163
0.18014526,-3.1130524,9.299072
0.21366882,-3.0747528,9.356522
0.24240112,-3.0699615,9.351746
0.2328186,-3.1657257,9.423569
0.18972778,-3.127411,9.337372
0.15621948,-3.08432,9.404419
0.18493652,-3.0460205,9.390045
0.15142822,-3.0268555,9.375687
0.18493652,-2.9646149,9.361313
0.2040863,-2.9837646,9.227234
0.20887756,-2.9598236,9.222458
0.22325134,-2.9741821,9.164993
0.2615509,-2.9550323,9.1506195
0.21846008,-2.9598236,9.136261
0.30943298,-2.950241,9.169785
0.35253906,-3.0412292,9.102737
0.3764801,-3.0172882,9.174561
0.35253906,-3.0172882,9.25119
0.32859802,-2.9981384,9.126678
0.32380676,-2.9981384,9.107529
0.33816528,-2.9741821,9.174561
0.3477478,-2.9694061,9.212875
0.32859802,-2.950241,9.260757000000002
0.35253906,-2.9310913,9.294281
0.29986572,-2.9119415,9.30864
0.33816528,-2.8257446,9.50975
0.32859802,-2.9310913,9.4427185
0.30464172,-2.8688507,9.413986
0.32859802,-2.9071503,9.385254
0.33816528,-2.878418,9.437927
0.29986572,-2.9550323,9.399628
0.27592468,-2.9167328,9.361313
0.31422424,-2.8880005,9.351746
0.2615509,-2.9694061,9.327805
0.28070068,-2.9310913,9.337372
0.27113342,-2.9310913,9.323013
0.28549194,-2.8975677,9.385254
0.28549194,-2.9646149,9.361313
0.26634216,-2.9310913,9.385254
0.23760986,-2.9933472,9.409195
0.27113342,-3.0172882,9.356522
0.2902832,-3.0077057,9.380463
0.23760986,-3.0077057,9.380463
0.23760986,-3.0077057,9.332581
0.22802734,-2.9215088,9.2846985
0.29507446,-2.9646149,9.2846985
0.23760986,-2.9215088,9.313431
0.28070068,-2.902359,9.241608
0.30464172,-2.9215088,9.25119
0.23760986,-2.9215088,9.265549
0.28070068,-2.8832092,9.303848
0.25675964,-2.902359,9.28949
0.29507446,-2.9215088,9.361313
0.2902832,-2.9215088,9.361313
0.27113342,-2.9119415,9.375687
0.2615509,-3.0077057,9.418777
0.2328186,-2.878418,9.452301
0.20887756,-2.8927917,9.346954
0.2040863,-2.8496857,9.413986
0.22325134,-2.8496857,9.399628
0.1370697,-2.9406738,9.409195
0.18493652,-2.8736267,9.346954
0.14665222,-2.9119415,9.318222
0.12748718,-2.8640594,9.294281
0.15621948,-2.8880005,9.351746
0.12748718,-2.854477,9.30864
0.13227844,-2.9358826,9.28949
0.14186096,-2.8927917,9.25119
0.18014526,-2.9167328,9.2846985
0.12748718,-2.9837646,9.4427185
0.17536926,-2.9406738,9.342163
0.13227844,-2.9646149,9.361313
0.11312866,-2.9119415,9.356522
0.1370697,-2.9215088,9.375687
0.16101074,-2.902359,9.413986
0.07003784,-2.9071503,9.452301
0.12748718,-2.9215088,9.423569
0.11791992,-2.945465,9.361313
0.14186096,-2.8832092,9.327805
0.18972778,-2.8496857,9.313431
0.22325134,-2.8401184,9.323013
0.24719238,-2.8640594,9.25119
0.2615509,-2.854477,9.279907
0.24719238,-2.8640594,9.246399
0.25198364,-2.7970123,9.222458
0.27592468,-2.7922363,9.27034
0.22325134,-2.8209534,9.313431
0.2902832,-2.7826538,9.232025
0.26634216,-2.7922363,9.351746
0.2328186,-2.8018036,9.313431
0.22802734,-2.854477,9.332581
0.18972778,-2.8592682,9.332581
0.21366882,-2.8592682,9.351746
0.22325134,-2.8257446,9.394836
0.2040863,-2.8401184,9.28949
0.22325134,-2.8640594,9.394836
0.20887756,-2.8688507,9.399628
0.19451904,-2.8640594,9.423569
0.18972778,-2.854477,9.346954
0.19451904,-2.8065948,9.356522
0.22325134,-2.878418,9.30864
0.24719238,-2.8688507,9.366104000000002
0.29507446,-2.9167328,9.323013
0.23760986,-2.8640594,9.303848
0.27113342,-2.8592682,9.241608
0.2902832,-2.8592682,9.318222
0.27592468,-2.8832092,9.351746
0.28070068,-2.8640594,9.313431
0.27592468,-2.8592682,9.346954
0.27113342,-2.830536,9.351746
0.28549194,-2.8496857,9.342163
0.2328186,-2.8448944,9.399628
0.2615509,-2.8353271,9.361313
0.2040863,-2.8880005,9.394836
0.25675964,-2.8065948,9.361313
0.24240112,-2.8401184,9.418777
0.21846008,-2.8257446,9.380463
0.17536926,-2.7922363,9.380463
0.165802,-2.811386,9.4427185
0.15621948,-2.8018036,9.437927
0.15142822,-2.8592682,9.342163
0.11791992,-2.7970123,9.394836
0.14186096,-2.830536,9.42836
0.13227844,-2.8353271,9.361313
0.17536926,-2.787445,9.356522
0.17536926,-2.811386,9.409195
0.12748718,-2.830536,9.294281
0.14186096,-2.8161774,9.265549
0.12748718,-2.7826538,9.2846985
0.17059326,-2.8065948,9.27034
0.18972778,-2.8209534,9.28949
0.18014526,-2.7970123,9.275131
0.18014526,-2.8018036,9.337372
0.19451904,-2.787445,9.299072
0.17059326,-2.744339,9.327805
0.21366882,-2.7922363,9.44751
0.1993103,-2.830536,9.346954
0.23760986,-2.763504,9.390045
0.18493652,-2.8065948,9.390045
0.20887756,-2.7826538,9.385254
0.22325134,-2.787445,9.404419
0.18014526,-2.7730713,9.46666
0.20887756,-2.739563,9.351746
0.17536926,-2.763504,9.323013
0.19451904,-2.715622,9.332581
0.2040863,-2.739563,9.399628
0.12271118,-2.830536,9.380463
0.18014526,-2.76828,9.404419
0.14665222,-2.715622,9.337372
0.1370697,-2.76828,9.361313
0.16101074,-2.787445,9.337372
0.19451904,-2.8065948,9.366104000000002
0.12271118,-2.8448944,9.423569
0.19451904,-2.7970123,9.404419
0.16101074,-2.8496857,9.452301
0.15142822,-2.8161774,9.433136
0.18972778,-2.7826538,9.433136
0.14186096,-2.763504,9.356522
0.165802,-2.7730713,9.423569
0.18014526,-2.8018036,9.394836
0.17059326,-2.8401184,9.418777
0.165802,-2.7347717,9.370895
0.12748718,-2.7826538,9.394836
0.13227844,-2.7730713,9.495392
0.14186096,-2.7922363,9.351746
0.1083374,-2.8018036,9.265549
0.165802,-2.7922363,9.361313
0.09875488,-2.744339,9.385254
0.09397888,-2.7778625,9.409195
0.11791992,-2.76828,9.385254
0.11791992,-2.76828,9.303848
0.15142822,-2.7347717,9.318222
0.10354614,-2.7826538,9.346954
0.1083374,-2.76828,9.303848
0.10354614,-2.7347717,9.342163
0.13227844,-2.811386,9.332581
0.13227844,-2.763504,9.342163
0.09875488,-2.6916656,9.409195
0.11312866,-2.739563,9.399628
0.09397888,-2.715622,9.399628
0.09875488,-2.7347717,9.299072
0.12271118,-2.787445,9.423569
0.08439636,-2.720398,9.390045
0.08918761999999998,-2.7922363,9.375687
0.07481384,-2.8065948,9.399628
0.08918761999999998,-2.7587128,9.452301
0.08918761999999998,-2.739563,9.380463
0.08918761999999998,-2.7299805,9.418777
0.09397888,-2.7587128,9.399628
0.11791992,-2.7826538,9.356522
0.1083374,-2.7491302,9.437927
0.11312866,-2.7587128,9.409195
0.11312866,-2.7539215,9.42836
0.15621948,-2.7922363,9.471451
0.16101074,-2.8065948,9.471451
0.11312866,-2.8209534,9.4427185
0.18493652,-2.8401184,9.519333
0.18014526,-2.7826538,9.528915
0.12271118,-2.7970123,9.595947
0.15142822,-2.8209534,9.610306
0.16101074,-2.7491302,9.557648
0.12271118,-2.739563,9.394836
0.1370697,-2.7060394,9.461868
0.14186096,-2.6916656,9.337372
0.17059326,-2.696457,9.27034
0.12748718,-2.715622,9.246399
0.22802734,-2.7491302,9.188934
0.22325134,-2.7299805,9.246399
0.20887756,-2.7778625,9.212875
0.25675964,-2.787445,9.356522
0.24240112,-2.8209534,9.241608
0.27592468,-2.8161774,9.265549
0.2328186,-2.811386,9.28949
0.22325134,-2.8065948,9.260757000000002
0.20887756,-2.787445,9.246399
0.2040863,-2.7587128,9.351746
0.18014526,-2.7730713,9.28949
0.12748718,-2.739563,9.332581
0.14186096,-2.7347717,9.375687
0.12271118,-2.6773071,9.275131
0.10354614,-2.7108307,9.327805
0.13227844,-2.7251892,9.351746
0.08918761999999998,-2.6581573,9.404419
0.09875488,-2.715622,9.346954
0.08918761999999998,-2.6725159,9.342163
0.060455322,-2.7587128,9.351746
0.13227844,-2.7251892,9.4427185
0.14186096,-2.7299805,9.351746
0.12748718,-2.7922363,9.380463
0.15621948,-2.7970123,9.385254
0.18014526,-2.8592682,9.399628
0.15621948,-2.811386,9.370895
0.14665222,-2.878418,9.409195
0.16101074,-2.8736267,9.514542
0.1993103,-2.8448944,9.394836
0.165802,-2.8161774,9.418777
0.15621948,-2.8353271,9.476242
0.12271118,-2.8209534,9.433136
0.18014526,-2.8448944,9.4427185
0.16101074,-2.8209534,9.337372
0.08439636,-2.787445,9.394836
0.14186096,-2.8161774,9.4427185
0.18972778,-2.8736267,9.418777
0.15621948,-2.811386,9.404419
0.12271118,-2.830536,9.370895
0.15621948,-2.8065948,9.413986
0.09397888,-2.811386,9.323013
0.16101074,-2.8688507,9.44751
0.13227844,-2.878418,9.409195
0.14665222,-2.8640594,9.423569
0.13227844,-2.8688507,9.356522
0.14665222,-2.8257446,9.342163
0.10354614,-2.9167328,9.366104000000002
0.15621948,-2.8880005,9.390045
0.12748718,-2.8065948,9.399628
0.13227844,-2.8640594,9.437927
0.17536926,-2.8448944,9.327805
0.14665222,-2.8018036,9.327805
0.16101074,-2.811386,9.30864
0.2040863,-2.7970123,9.217667
0.2040863,-2.7491302,9.236816
0.19451904,-2.8161774,9.222458
0.18972778,-2.8448944,9.30864
0.24240112,-2.878418,9.30864
0.20887756,-2.8736267,9.356522
0.16101074,-2.8018036,9.44751
0.14665222,-2.878418,9.481033
0.1083374,-2.8448944,9.44751
0.09397888,-2.8496857,9.461868
0.11791992,-2.854477,9.50975
0.1993103,-2.8065948,9.370895
0.18972778,-2.811386,9.332581
0.1993103,-2.8927917,9.361313
0.1993103,-2.7778625,9.323013
0.1993103,-2.854477,9.318222
0.21366882,-2.8688507,9.323013
0.17536926,-2.8640594,9.342163
0.24240112,-2.8975677,9.385254
0.25198364,-2.8927917,9.30864
0.24719238,-2.854477,9.313431
0.1993103,-2.8496857,9.260757000000002
0.21366882,-2.9215088,9.232025
0.21846008,-2.902359,9.332581
0.15621948,-2.8975677,9.227234
0.2040863,-2.9167328,9.2846985
0.18972778,-2.9215088,9.313431
0.20887756,-2.9741821,9.346954
0.15621948,-2.945465,9.418777
0.21366882,-3.036438,9.390045
0.18014526,-2.9837646,9.413986
0.1993103,-2.988556,9.279907
0.165802,-2.9598236,9.361313
0.2040863,-2.9789734,9.346954
0.1993103,-2.9981384,9.327805
0.21846008,-2.9837646,9.265549
0.165802,-2.9789734,9.193726
0.25675964,-2.9789734,9.275131
0.2328186,-2.9837646,9.241608
0.2328186,-2.9358826,9.30864
0.22802734,-2.9837646,9.198517
0.25198364,-2.9837646,9.313431
0.20887756,-3.012497,9.265549
0.19451904,-3.0507965,9.217667
0.21846008,-2.9837646,9.299072
0.2328186,-2.9694061,9.327805
0.21846008,-2.9215088,9.418777
0.18014526,-3.0029144,9.337372
0.23760986,-2.9358826,9.418777
0.2040863,-2.9933472,9.313431
0.25675964,-2.9933472,9.318222
0.20887756,-2.9933472,9.337372
0.24240112,-3.0268555,9.370895
0.19451904,-3.0316467,9.332581
0.2040863,-2.9646149,9.30864
0.17059326,-2.9981384,9.25119
0.22802734,-3.0029144,9.217667
0.18493652,-3.0172882,9.318222
0.15621948,-2.9981384,9.260757000000002
0.18972778,-3.0460205,9.212875
0.2040863,-3.0412292,9.260757000000002
0.165802,-3.060379,9.227234
0.15142822,-3.0651703,9.294281
0.18493652,-3.0747528,9.327805
0.14665222,-3.0268555,9.2846985
0.11791992,-3.0412292,9.241608
0.16101074,-3.0316467,9.294281
0.17059326,-3.0316467,9.332581
0.1370697,-3.0077057,9.227234
0.15142822,-3.012497,9.303848
0.10354614,-3.060379,9.246399
0.11791992,-3.0268555,9.27034
0.18014526,-3.0172882,9.265549
0.18493652,-3.0077057,9.246399
0.13227844,-3.0699615,9.275131
0.11312866,-3.0460205,9.313431
0.19451904,-3.0795288,9.327805
0.18493652,-3.08432,9.241608
0.16101074,-3.0986938,9.25119
0.14665222,-3.1322021,9.30864
0.17536926,-3.1322021,9.275131
0.18493652,-3.127411,9.255966
0.20887756,-3.08432,9.255966
0.21366882,-3.127411,9.275131
0.13227844,-3.0986938,9.337372
0.165802,-3.0891113,9.2846985
0.14665222,-3.127411,9.30864
0.14186096,-3.1034698,9.337372
0.09397888,-3.0651703,9.27034
