accX,accY,accZ
0.42915344,-1.2743073,9.643829
0.47703552,-1.2359924000000002,9.662979000000002
0.4961853,-1.2838898,9.725235
0.5153351,-1.2359924000000002,9.634262
0.5153351,-1.2120514,9.591156
0.48182678,-1.2551575,9.595947
0.50097656,-1.2312164,9.610306
0.48660278,-1.2312164,9.595947
0.46266174,-1.245575,9.567215
0.4961853,-1.2168427,9.639038
0.49139404,-1.2407837,9.629471
0.467453,-1.2359924000000002,9.619888
0.49139404,-1.2264252000000002,9.605530000000002
0.5392761,-1.2120514,9.643829
0.5057678,-1.2216339,9.619888
0.47224426,-1.2216339,9.653412
0.49139404,-1.1929016,9.552856
0.48660278,-1.2216339,9.619888
0.47703552,-1.2072754,9.66777
0.45787048,-1.2503662,9.720444
0.5153351,-1.1737518,9.653412
0.47703552,-1.1929016,9.629471
0.4961853,-1.2407837,9.62468
0.5249176,-1.2168427,9.682144
0.45787048,-1.2168427,9.648621
0.48182678,-1.2647247,9.691711
0.467453,-1.2886658,9.682144
0.46266174,-1.2407837,9.648621
0.49139404,-1.2072754,9.730026
0.48182678,-1.1881104,9.662979000000002
0.4961853,-1.2216339,9.658203
0.44830322,-1.245575,9.653412
0.43392944,-1.2264252000000002,9.662979000000002
0.5249176,-1.2216339,9.677353
0.5249176,-1.2359924000000002,9.66777
0.467453,-1.2551575,9.691711
0.47703552,-1.245575,9.658203
0.46266174,-1.2072754,9.672562
0.4387207,-1.2024841,9.629471
0.45309448,-1.2312164,9.66777
0.47703552,-1.2072754,9.710876
0.47703552,-1.2216339,9.730026
0.4961853,-1.1881104,9.591156
0.47224426,-1.2072754,9.706085
0.47224426,-1.1929016,9.634262
0.5057678,-1.245575,9.610306
0.47703552,-1.1976929,9.682144
0.4961853,-1.269516,9.5767975
0.4387207,-1.2216339,9.572006
0.47224426,-1.135437,9.591156
0.44351196,-1.1833191,9.639038
0.45309448,-1.159378,9.634262
0.5105438,-1.1833191,9.715652
0.48660278,-1.1737518,9.62468
0.46266174,-1.1737518,9.643829
0.42436218,-1.2120514,9.567215
0.49139404,-1.1641693,9.643829
0.44830322,-1.1929016,9.696503
0.5057678,-1.154602,9.672562
0.5057678,-1.135437,9.662979000000002
0.47224426,-1.135437,9.619888
0.5057678,-1.1641693,9.720444
0.48182678,-1.130661,9.710876
0.45309448,-1.159378,9.7348175
0.49139404,-1.1450195,9.62468
0.46266174,-1.1641693,9.653412
0.41957092,-1.1402283,9.5767975
0.42915344,-1.1737518,9.658203
0.45787048,-1.1785431,9.572006
0.44830322,-1.1785431,9.533691
0.4387207,-1.154602,9.586365
0.46266174,-1.154602,9.629471
0.45309448,-1.1929016,9.672562
0.46266174,-1.1976929,9.725235
0.49139404,-1.2551575,9.753967
0.52012634,-1.2024841,9.806641
0.52012634,-1.1737518,9.859314
0.47224426,-1.1641693,9.773117
0.40042114,-1.1881104,9.706085
0.42915344,-1.1450195,9.562424
0.41957092,-1.1785431,9.639038
0.39083862,-1.1785431,9.543274
0.46266174,-1.1833191,9.600739
0.44830322,-1.2120514,9.562424
0.42436218,-1.1881104,9.581589
0.47224426,-1.2024841,9.62468
0.47224426,-1.2120514,9.572006
0.467453,-1.1929016,9.648621
0.44830322,-1.2024841,9.658203
0.47703552,-1.1689606,9.696503
0.5057678,-1.1737518,9.777908
0.4961853,-1.111496,9.706085
0.48182678,-1.130661,9.806641
0.50097656,-1.135437,9.768326
0.4961853,-1.0588226,9.878464
0.48660278,-1.0205231,9.797058
0.52970886,-1.0588226,9.787491
0.5105438,-1.0348816,9.816208
0.5057678,-0.99658203,9.801849
0.49139404,-1.0253143,9.7395935
0.5105438,-1.0779877000000002,9.62468
0.48182678,-1.0492554,9.619888
0.50097656,-1.0588226,9.682144
0.46266174,-1.0348816,9.615097
0.45309448,-1.0779877000000002,9.653412
0.50097656,-1.0731964,9.648621
0.42915344,-1.130661,9.600739
0.47703552,-1.0875549000000002,9.605530000000002
0.45787048,-1.0827637,9.658203
0.4387207,-1.1785431,9.648621
0.467453,-1.1498108,9.66777
0.48182678,-1.1689606,9.68692
0.44830322,-1.1450195,9.677353
0.4387207,-1.1450195,9.66777
0.4961853,-1.1210785,9.648621
0.467453,-1.1641693,9.7348175
0.48660278,-1.2024841,9.639038
0.50097656,-1.1785431,9.701294
0.46266174,-1.1881104,9.720444
0.4961853,-1.1833191,9.62468
0.50097656,-1.1258698,9.610306
0.52012634,-1.1737518,9.62468
0.46266174,-1.2072754,9.662979000000002
0.47224426,-1.1785431,9.677353
0.44830322,-1.1641693,9.701294
0.46266174,-1.1689606,9.768326
0.49139404,-1.1498108,9.744385
0.467453,-1.154602,9.715652
0.44351196,-1.1162872,9.682144
0.50097656,-1.0875549000000002,9.62468
0.44830322,-1.111496,9.696503
0.44830322,-1.0779877000000002,9.634262
0.44830322,-1.1162872,9.610306
0.44351196,-1.0636139,9.682144
0.47224426,-1.1019287,9.619888
0.45787048,-1.0779877000000002,9.634262
0.47703552,-1.0731964,9.66777
0.5105438,-1.0971375,9.672562
0.47703552,-1.0827637,9.691711
0.467453,-1.0636139,9.715652
0.45309448,-1.0971375,9.662979000000002
0.4387207,-1.0205231,9.658203
0.43392944,-1.0348816,9.567215
0.467453,-1.0444641,9.7395935
0.46266174,-1.0396729,9.629471
0.45309448,-1.1162872,9.591156
0.5057678,-1.0684052,9.658203
0.44830322,-1.0396729,9.648621
0.49139404,-1.0827637,9.662979000000002
0.42915344,-1.0348816,9.691711
0.44830322,-1.0396729,9.720444
0.44351196,-1.0875549000000002,9.648621
0.47703552,-1.0827637,9.753967
0.47703552,-1.0636139,9.710876
0.44351196,-1.0684052,9.715652
0.47703552,-1.1258698,9.639038
0.43392944,-1.0827637,9.677353
0.47224426,-1.0827637,9.66777
0.4387207,-1.1210785,9.682144
0.47703552,-1.0971375,9.7348175
0.48660278,-1.0684052,9.677353
0.467453,-1.1067047,9.744385
0.47224426,-1.1258698,9.662979000000002
0.49139404,-1.1067047,9.696503
0.47224426,-1.0731964,9.701294
0.43392944,-1.1019287,9.66777
0.52012634,-1.0971375,9.701294
0.43392944,-1.1067047,9.662979000000002
0.47703552,-1.0875549000000002,9.66777
0.43392944,-1.1067047,9.615097
0.47224426,-1.0827637,9.658203
0.50097656,-1.111496,9.648621
0.4961853,-1.1210785,9.725235
0.4387207,-1.1258698,9.696503
0.46266174,-1.1019287,9.629471
0.44351196,-1.0971375,9.706085
0.48182678,-1.0923462,9.653412
0.5057678,-1.0971375,9.677353
0.43392944,-1.0827637,9.653412
0.45309448,-1.0588226,9.696503
0.43392944,-1.0684052,9.758759
0.46266174,-1.0779877000000002,9.677353
0.41957092,-1.0013733,9.629471
0.43392944,-1.0588226,9.706085
0.43392944,-1.0636139,9.68692
0.45787048,-1.0253143,9.753967
0.41477966,-1.0540466,9.7348175
0.5057678,-1.0300903,9.648621
0.44830322,-1.0300903,9.662979000000002
0.49139404,-1.0396729,9.696503
0.5057678,-1.0923462,9.758759
0.44830322,-1.0109406,9.648621
0.42915344,-1.0157318,9.672562
0.467453,-1.0396729,9.691711
0.49139404,-0.99658203,9.701294
0.45309448,-1.0396729,9.720444
0.44351196,-1.0875549000000002,9.662979000000002
0.5440674,-1.0540466,9.653412
0.44351196,-1.0636139,9.720444
0.42915344,-1.0444641,9.744385
0.4961853,-1.0492554,9.710876
0.48182678,-1.0588226,9.653412
0.45787048,-1.0492554,9.672562
0.47703552,-1.0396729,9.600739
0.45309448,-1.0731964,9.682144
0.43392944,-1.0684052,9.662979000000002
0.4961853,-1.1258698,9.62468
0.44830322,-1.0492554,9.629471
0.44351196,-1.0923462,9.706085
0.47703552,-1.0827637,9.639038
0.44830322,-1.0875549000000002,9.749176
0.45787048,-1.0348816,9.710876
0.44351196,-1.0875549000000002,9.7348175
0.467453,-1.1162872,9.682144
0.44351196,-1.0684052,9.62468
0.467453,-1.0588226,9.648621
0.48182678,-1.0731964,9.610306
0.41477966,-1.0779877000000002,9.696503
0.44351196,-1.0061493,9.706085
0.45787048,-1.0492554,9.639038
0.4052124,-1.0636139,9.653412
0.4052124,-1.0636139,9.715652
0.41957092,-1.0923462,9.672562
0.48660278,-1.0444641,9.691711
0.47224426,-1.0731964,9.619888
0.46266174,-1.0396729,9.677353
0.45309448,-1.0253143,9.696503
0.45309448,-1.0492554,9.682144
0.44830322,-0.99658203,9.720444
0.45787048,-1.0253143,9.672562
0.47224426,-1.0300903,9.610306
0.44351196,-0.99658203,9.715652
0.4052124,-1.0348816,9.68692
0.46266174,-1.0109406,9.610306
0.41957092,-1.0588226,9.648621
0.43392944,-1.0540466,9.701294
0.44351196,-0.9869995,9.615097
0.46266174,-1.0348816,9.639038
0.48660278,-1.0444641,9.730026
0.48182678,-1.0492554,9.619888
0.45787048,-1.0396729,9.677353
0.46266174,-0.98220825,9.682144
0.467453,-1.0348816,9.658203
0.4387207,-1.0109406,9.677353
0.45309448,-1.0588226,9.672562
0.43392944,-1.0396729,9.706085
0.5057678,-1.0300903,9.648621
0.48660278,-0.99658203,9.639038
0.4387207,-1.0253143,9.648621
0.46266174,-1.0253143,9.595947
0.45787048,-1.0205231,9.691711
0.48660278,-1.0492554,9.648621
0.45309448,-0.9917908,9.662979000000002
0.44351196,-0.972641,9.730026
0.46266174,-1.0300903,9.710876
0.47224426,-0.9917908,9.730026
0.4099884,-0.99658203,9.797058
0.44351196,-1.0157318,9.773117
0.44351196,-0.99658203,9.749176
0.4387207,-0.977417,9.677353
0.44830322,-0.977417,9.653412
0.40042114,-1.0348816,9.5767975
0.42915344,-0.98220825,9.653412
0.43392944,-1.0013733,9.548065
0.45309448,-1.0205231,9.619888
0.45787048,-1.0253143,9.720444
0.5105438,-1.0731964,9.830582
0.5105438,-1.0971375,9.897614
0.42436218,-1.0779877000000002,9.868881
0.467453,-1.0444641,9.911987
0.5153351,-1.0875549000000002,9.854523
0.49139404,-1.0300903,9.811432000000002
0.467453,-1.0109406,9.600739
0.4387207,-1.0157318,9.5767975
0.42915344,-1.0300903,9.524124
0.39083862,-1.0875549000000002,9.533691
0.3812561,-1.0923462,9.50975
0.42915344,-1.0684052,9.528915
0.44830322,-1.0540466,9.600739
0.48182678,-1.1067047,9.562424
0.39562988,-1.0875549000000002,9.662979000000002
0.4052124,-1.0779877000000002,9.629471
0.46266174,-1.0157318,9.691711
0.45309448,-1.0396729,9.634262
0.46266174,-0.96784973,9.696503
0.43392944,-0.9869995,9.639038
0.46266174,-0.9439087,9.744385
0.4961853,-0.9630585,9.7827
0.48182678,-0.98220825,9.792267
0.48660278,-0.93911743,9.701294
0.48660278,-0.91038513,9.830582
0.46266174,-0.9630585,9.7827
0.3812561,-0.977417,9.835373
0.4099884,-0.8960266,9.811432000000002
0.467453,-0.9247589,9.768326
0.4099884,-0.89123535,9.715652
0.44830322,-0.93911743,9.706085
0.38604736,-0.89123535,9.629471
0.44830322,-0.9582672,9.662979000000002
0.42436218,-0.99658203,9.710876
0.42915344,-0.99658203,9.653412
0.41477966,-0.977417,9.658203
0.42915344,-1.0109406,9.7395935
0.42915344,-1.0253143,9.715652
0.42915344,-1.0540466,9.639038
0.42915344,-1.0109406,9.677353
0.3764801,-1.0779877000000002,9.720444
0.40042114,-1.0348816,9.696503
0.35731506,-1.0588226,9.662979000000002
0.42436218,-1.0636139,9.725235
0.37168884,-1.0588226,9.68692
0.4052124,-1.111496,9.706085
0.36689758,-1.0444641,9.591156
0.38604736,-1.0253143,9.658203
0.41477966,-1.0492554,9.7827
0.44830322,-1.0205231,9.720444
0.39562988,-1.0540466,9.706085
0.42436218,-1.0444641,9.720444
0.40042114,-1.0253143,9.744385
0.467453,-1.0636139,9.758759
0.36689758,-0.99658203,9.753967
0.41477966,-0.972641,9.787491
0.4052124,-0.9869995,9.7395935
0.44351196,-1.0205231,9.7827
0.46266174,-0.9630585,9.7395935
0.42915344,-1.0061493,9.773117
0.47703552,-0.972641,9.662979000000002
0.45309448,-1.0013733,9.677353
0.41957092,-0.9439087,9.5767975
0.467453,-0.94869995,9.653412
0.43392944,-0.9917908,9.696503
0.41957092,-0.9630585,9.758759
0.42915344,-0.93911743,9.753967
0.44351196,-0.9343262000000002,9.648621
0.49139404,-0.9439087,9.639038
0.467453,-0.9343262000000002,9.701294
0.44830322,-0.9869995,9.68692
0.47224426,-0.9247589,9.629471
0.48182678,-0.9055939,9.595947
0.44351196,-0.94869995,9.615097
0.47703552,-0.9439087,9.653412
0.42915344,-0.9295349,9.701294
0.38604736,-0.9630585,9.66777
0.41477966,-0.972641,9.691711
0.44830322,-0.93911743,9.715652
0.3812561,-0.95347595,9.725235
0.39562988,-0.972641,9.701294
0.41957092,-0.977417,9.691711
0.41957092,-0.972641,9.691711
0.43392944,-0.9439087,9.691711
0.4052124,-0.972641,9.7348175
0.43392944,-0.94869995,9.725235
0.44830322,-0.8768616,9.744385
0.4387207,-1.0061493,9.753967
0.39083862,-0.9917908,9.753967
0.43392944,-0.94869995,9.758759
0.467453,-0.95347595,9.7395935
0.42915344,-0.99658203,9.758759
0.3812561,-0.977417,9.706085
0.41957092,-1.0013733,9.682144
0.42436218,-1.0157318,9.758759
0.48660278,-0.9869995,9.7395935
0.38604736,-0.9582672,9.797058
0.39083862,-1.0109406,9.66777
0.45309448,-1.0109406,9.753967
0.39562988,-0.977417,9.66777
0.467453,-0.94869995,9.715652
0.3812561,-0.98220825,9.629471
0.41957092,-0.95347595,9.66777
0.4099884,-1.0013733,9.672562
0.3764801,-1.0109406,9.710876
0.40042114,-0.9917908,9.658203
0.39562988,-0.9630585,9.634262
0.42915344,-0.91996765,9.634262
0.43392944,-0.9439087,9.730026
0.3764801,-0.9247589,9.682144
0.39562988,-0.91038513,9.66777
0.3764801,-0.8960266,9.691711
0.39083862,-0.9917908,9.720444
0.39562988,-0.9151764,9.715652
0.41957092,-0.9343262000000002,9.682144
0.3764801,-0.8960266,9.706085
0.41477966,-0.94869995,9.62468
0.39562988,-0.972641,9.672562
0.41957092,-0.9343262000000002,9.701294
0.44351196,-0.9247589,9.672562
0.4099884,-0.9582672,9.730026
0.467453,-0.9008026,9.672562
0.4387207,-0.94869995,9.672562
0.42915344,-0.9055939,9.68692
0.42436218,-0.9343262000000002,9.66777
0.42436218,-0.9247589,9.691711
0.36210632,-0.94869995,9.7348175
0.43392944,-0.9439087,9.66777
0.44830322,-0.9343262000000002,9.720444
0.45309448,-0.8864440999999998,9.753967
0.39083862,-0.9439087,9.811432000000002
0.44351196,-0.8864440999999998,9.7348175
0.3812561,-0.91038513,9.792267
0.45787048,-0.95347595,9.768326
0.4387207,-0.972641,9.725235
0.36210632,-0.9247589,9.777908
0.41957092,-0.9247589,9.730026
0.42436218,-0.93911743,9.672562
0.4052124,-0.9055939,9.720444
0.4387207,-0.9295349,9.701294
0.40042114,-0.91996765,9.710876
0.39562988,-0.9343262000000002,9.68692
0.41477966,-0.8864440999999998,9.763535
0.41957092,-0.9295349,9.710876
0.42915344,-0.9151764,9.710876
0.36689758,-0.96784973,9.691711
0.4387207,-0.9055939,9.753967
0.4052124,-0.9295349,9.696503
0.42436218,-0.9295349,9.610306
0.44351196,-0.91038513,9.696503
0.42915344,-0.9151764,9.629471
0.38604736,-0.9008026,9.758759
0.43392944,-0.89123535,9.672562
0.44351196,-0.9055939,9.749176
0.41477966,-0.8864440999999998,9.677353
0.42436218,-0.9055939,9.672562
0.41957092,-0.91996765,9.643829
0.42915344,-0.9151764,9.725235
0.43392944,-0.8960266,9.691711
0.4099884,-0.9343262000000002,9.68692
0.44351196,-0.93911743,9.672562
0.44351196,-0.91038513,9.7348175
0.4052124,-0.9343262000000002,9.725235
0.3812561,-0.9008026,9.677353
0.41477966,-0.91996765,9.653412
0.45309448,-0.9582672,9.715652
0.44351196,-0.96784973,9.720444
0.42915344,-0.8577118,9.730026
0.41477966,-0.93911743,9.7395935
0.40042114,-0.9151764,9.68692
0.3812561,-0.9343262000000002,9.753967
0.4387207,-0.9151764,9.648621
0.4099884,-0.8720856,9.710876
0.40042114,-0.8672942999999999,9.763535
0.3812561,-0.8960266,9.806641
0.4052124,-0.88165283,9.7395935
0.39083862,-0.8289795,9.753967
0.39083862,-0.86250305,9.758759
0.41957092,-0.8864440999999998,9.658203
0.42915344,-0.8672942999999999,9.572006
0.39083862,-0.8864440999999998,9.629471
0.43392944,-0.91996765,9.581589
0.39083862,-0.9247589,9.610306
0.37168884,-0.91996765,9.610306
0.36689758,-0.9343262000000002,9.710876
0.34295654,-0.9439087,9.859314
0.41477966,-0.972641,9.993378
0.45309448,-0.91038513,9.969437
0.42436218,-0.9295349,9.864105
0.3812561,-0.98220825,9.7395935
0.41477966,-0.89123535,9.677353
0.42436218,-0.9869995,9.595947
0.42436218,-0.93911743,9.543274
0.4387207,-0.972641,9.586365
0.39562988,-0.94869995,9.557648
0.36210632,-1.0205231,9.5767975
0.35731506,-0.99658203,9.557648
0.40042114,-0.972641,9.62468
0.39562988,-1.0013733,9.658203
0.44830322,-1.0061493,9.68692
0.43392944,-1.0109406,9.66777
0.45787048,-0.9582672,9.653412
0.45309448,-0.9247589,9.658203
0.45787048,-0.8960266,9.720444
0.44830322,-0.8960266,9.725235
0.4099884,-0.9343262000000002,9.777908
0.467453,-0.8433532999999999,9.797058
0.42436218,-0.8672942999999999,9.777908
0.4099884,-0.83377075,9.801849
0.41477966,-0.814621,9.931137
0.41957092,-0.84814453,9.8736725
0.3812561,-0.814621,9.82579
0.43392944,-0.85292053,9.773117
0.39083862,-0.84814453,9.691711
0.40042114,-0.8768616,9.768326
0.41477966,-0.8050384499999998,9.758759
0.41957092,-0.8672942999999999,9.710876
0.3764801,-0.89123535,9.7348175
0.41477966,-0.8864440999999998,9.677353
0.40042114,-0.88165283,9.619888
0.4099884,-0.8768616,9.629471
0.39562988,-0.94869995,9.710876
0.37168884,-0.9295349,9.7395935
0.39562988,-0.9295349,9.768326
0.4099884,-0.8768616,9.749176
0.3764801,-0.9247589,9.68692
0.33816528,-0.9439087,9.706085
0.36210632,-0.9630585,9.658203
0.35253906,-0.95347595,9.691711
0.33337402,-0.96784973,9.696503
0.40042114,-0.9582672,9.66777
0.35253906,-1.0540466,9.715652
0.4052124,-0.98220825,9.696503
0.38604736,-0.972641,9.658203
0.42436218,-0.98220825,9.68692
0.4099884,-0.9630585,9.653412
0.4099884,-0.9917908,9.706085
0.4387207,-1.0061493,9.720444
0.37168884,-1.0205231,9.744385
0.4099884,-0.9917908,9.701294
0.41477966,-0.99658203,9.806641
0.4052124,-0.972641,9.753967
0.42436218,-0.95347595,9.801849
0.45787048,-0.95347595,9.744385
0.40042114,-0.94869995,9.696503
0.41477966,-0.98220825,9.710876
0.39562988,-0.8768616,9.648621
0.3764801,-0.9343262000000002,9.653412
0.44351196,-0.977417,9.615097
0.3764801,-0.9247589,9.720444
0.4099884,-0.91996765,9.730026
0.38604736,-0.91038513,9.720444
0.41957092,-0.9295349,9.706085
0.43392944,-0.9295349,9.773117
0.3764801,-0.94869995,9.706085
0.45787048,-0.93911743,9.68692
0.42436218,-0.93911743,9.605530000000002
0.42915344,-0.9151764,9.677353
0.45309448,-0.91996765,9.662979000000002
0.467453,-0.8864440999999998,9.610306
0.44351196,-0.9008026,9.643829
0.42436218,-0.9343262000000002,9.629471
0.4387207,-0.96784973,9.610306
0.44351196,-0.8864440999999998,9.653412
0.42436218,-0.9295349,9.749176
0.3764801,-0.89123535,9.682144
0.44351196,-0.9295349,9.691711
0.41957092,-0.91996765,9.730026
0.39562988,-0.91038513,9.730026
0.36210632,-0.9630585,9.720444
0.41957092,-0.84814453,9.643829
0.36689758,-0.8864440999999998,9.753967
0.43392944,-0.9343262000000002,9.677353
0.44830322,-0.9630585,9.768326
0.41477966,-0.9295349,9.816208
0.41477966,-0.96784973,9.701294
0.39083862,-0.91996765,9.801849
0.44351196,-0.9008026,9.768326
0.41477966,-0.9055939,9.710876
0.37168884,-0.9295349,9.696503
0.44351196,-0.93911743,9.730026
0.4099884,-0.9343262000000002,9.720444
0.44830322,-0.9247589,9.787491
0.41477966,-0.9343262000000002,9.773117
0.39562988,-0.8720856,9.725235
0.40042114,-0.9439087,9.7395935
0.40042114,-0.9151764,9.730026
0.44830322,-0.91996765,9.677353
0.37168884,-0.9247589,9.691711
0.39083862,-0.9917908,9.792267
0.4099884,-0.94869995,9.682144
0.41957092,-0.9582672,9.634262
0.36689758,-0.9582672,9.720444
0.39562988,-0.9295349,9.701294
0.39083862,-0.99658203,9.744385
0.36210632,-0.8960266,9.629471
0.40042114,-0.9630585,9.710876
0.4387207,-0.9630585,9.7348175
0.3764801,-0.9439087,9.725235
0.42915344,-0.9439087,9.7348175
0.34295654,-0.98220825,9.749176
0.35253906,-0.972641,9.720444
0.36210632,-0.94869995,9.696503
0.3477478,-0.9582672,9.7395935
0.36210632,-0.9439087,9.701294
0.39083862,-0.9343262000000002,9.653412
0.35731506,-0.95347595,9.653412
0.39562988,-0.972641,9.634262
0.3764801,-0.9295349,9.662979000000002
0.4052124,-0.9439087,9.677353
0.42915344,-0.972641,9.662979000000002
0.37168884,-0.977417,9.749176
0.35253906,-0.96784973,9.68692
0.39562988,-0.94869995,9.586365
0.34295654,-0.9439087,9.677353
0.35253906,-0.93911743,9.773117
0.36210632,-0.9630585,9.62468
0.39083862,-0.96784973,9.677353
0.36689758,-0.95347595,9.682144
0.3812561,-0.972641,9.730026
0.3812561,-0.94869995,9.7395935
0.36689758,-0.96784973,9.720444
0.34295654,-0.98220825,9.639038
0.36210632,-0.9247589,9.68692
0.33816528,-0.9630585,9.701294
0.36210632,-0.94869995,9.648621
0.31422424,-0.99658203,9.62468
0.33816528,-0.9582672,9.768326
0.30943298,-0.91996765,9.634262
0.35253906,-0.9439087,9.682144
0.33337402,-0.91996765,9.658203
0.3190155,-0.977417,9.7395935
0.37168884,-0.91996765,9.68692
0.3812561,-0.9869995,9.658203
0.3190155,-0.95347595,9.787491
0.33816528,-0.9582672,9.753967
0.3812561,-0.9247589,9.701294
0.35731506,-0.99658203,9.7348175
0.37168884,-0.93911743,9.710876
0.36210632,-0.972641,9.696503
0.36210632,-0.9439087,9.749176
0.4052124,-0.9343262000000002,9.730026
0.36210632,-0.98220825,9.763535
0.35253906,-0.9343262000000002,9.777908
0.32859802,-0.972641,9.768326
0.3812561,-0.9247589,9.773117
0.36689758,-0.972641,9.797058
0.37168884,-0.9151764,9.720444
0.40042114,-0.9247589,9.567215
0.3812561,-0.9343262000000002,9.595947
0.36689758,-0.9439087,9.5767975
0.38604736,-0.972641,9.538483
0.3190155,-0.9869995,9.548065
0.3477478,-0.96784973,9.725235
0.34295654,-0.99658203,9.835373
0.32859802,-0.9055939,9.916763
0.33816528,-1.0013733,9.969437
0.33816528,-0.9917908,9.969437
0.3812561,-1.0109406,9.859314
0.35731506,-0.9917908,9.84494
0.3764801,-0.99658203,9.610306
0.4099884,-1.0109406,9.634262
0.37168884,-1.0396729,9.615097
0.3190155,-1.0205231,9.461868
0.35731506,-1.0157318,9.548065
0.40042114,-1.0253143,9.519333
0.35253906,-1.0588226,9.538483
0.3477478,-1.0540466,9.629471
0.32859802,-1.0300903,9.581589
0.4052124,-1.0875549000000002,9.619888
0.33337402,-1.1067047,9.658203
0.41957092,-1.1019287,9.5767975
0.35731506,-1.0971375,9.629471
0.39083862,-1.0444641,9.682144
0.35731506,-1.0779877000000002,9.691711
0.39083862,-1.0205231,9.806641
0.41477966,-0.99658203,9.749176
0.35253906,-0.99658203,9.806641
0.33337402,-0.96784973,9.82579
0.31422424,-0.9582672,9.816208
0.35731506,-0.95347595,9.859314
0.33337402,-0.9343262000000002,9.792267
0.36210632,-0.8960266,9.696503
0.35731506,-0.9151764,9.830582
0.35253906,-0.9295349,9.787491
0.32380676,-0.8194122299999999,9.730026
0.3190155,-0.8864440999999998,9.773117
0.32859802,-0.9055939,9.720444
0.33337402,-0.91038513,9.792267
0.35253906,-0.91038513,9.725235
0.3764801,-0.98220825,9.706085
0.31422424,-0.9869995,9.763535
0.35731506,-0.9582672,9.792267
0.32380676,-0.9917908,9.658203
0.3190155,-1.0444641,9.725235
0.29986572,-1.0300903,9.677353
0.29507446,-1.0779877000000002,9.629471
0.32380676,-1.0300903,9.658203
0.2902832,-1.0444641,9.62468
0.34295654,-1.0348816,9.615097
0.32380676,-1.0684052,9.706085
0.30943298,-1.0588226,9.672562
0.28549194,-1.0205231,9.643829
0.33337402,-1.0396729,9.662979000000002
0.35731506,-1.0636139,9.639038
0.32859802,-1.0348816,9.706085
0.35253906,-1.0731964,9.682144
0.31422424,-1.0875549000000002,9.672562
0.34295654,-1.0109406,9.677353
0.3764801,-1.0253143,9.706085
0.3477478,-1.0396729,9.706085
0.29986572,-0.98220825,9.7827
0.36210632,-1.0253143,9.715652
0.42436218,-1.0300903,9.801849
0.31422424,-0.977417,9.725235
0.35253906,-0.9869995,9.701294
0.36689758,-0.972641,9.662979000000002
0.37168884,-0.9917908,9.648621
0.34295654,-0.972641,9.591156
0.32859802,-0.9630585,9.701294
0.34295654,-1.0013733,9.643829
0.3477478,-0.9582672,9.715652
0.32859802,-0.9869995,9.710876
0.3190155,-0.9247589,9.7348175
0.32380676,-0.93911743,9.66777
0.3812561,-0.9917908,9.7395935
0.32380676,-1.0013733,9.710876
0.4099884,-0.98220825,9.62468
0.42436218,-0.98220825,9.619888
0.42436218,-0.9917908,9.648621
0.35253906,-0.96784973,9.605530000000002
0.36689758,-1.0348816,9.696503
0.40042114,-0.9869995,9.68692
0.33816528,-0.96784973,9.610306
0.42436218,-0.9917908,9.66777
0.3764801,-0.98220825,9.68692
0.40042114,-0.96784973,9.653412
0.38604736,-1.0540466,9.730026
0.37168884,-0.94869995,9.629471
0.3477478,-0.98220825,9.763535
0.33337402,-0.977417,9.725235
0.3764801,-0.94869995,9.777908
0.33337402,-0.9630585,9.797058
0.36689758,-1.0253143,9.758759
0.36210632,-0.9917908,9.710876
0.39562988,-0.9439087,9.763535
0.40042114,-0.9630585,9.773117
0.33816528,-0.93911743,9.658203
0.39083862,-0.9247589,9.749176
0.35731506,-0.98220825,9.696503
0.38604736,-0.9869995,9.725235
0.30943298,-0.95347595,9.720444
0.37168884,-0.9582672,9.7827
0.3812561,-0.9439087,9.725235
0.34295654,-0.972641,9.7348175
0.35731506,-0.9247589,9.682144
0.32859802,-0.9869995,9.706085
0.34295654,-0.9630585,9.648621
0.34295654,-0.99658203,9.701294
0.38604736,-0.95347595,9.706085
0.33816528,-0.95347595,9.68692
0.36689758,-0.9582672,9.744385
0.33816528,-0.972641,9.677353
0.30943298,-0.93911743,9.706085
0.34295654,-1.0061493,9.653412
0.3812561,-0.9439087,9.773117
0.35253906,-0.9869995,9.763535
0.37168884,-0.977417,9.653412
0.3764801,-0.93911743,9.691711
0.38604736,-0.9630585,9.691711
0.33816528,-0.9582672,9.68692
0.36210632,-0.977417,9.7348175
0.3477478,-0.95347595,9.720444
0.38604736,-0.9582672,9.66777
0.37168884,-0.9582672,9.753967
0.35253906,-0.9343262000000002,9.658203
0.3764801,-0.9295349,9.682144
0.37168884,-0.9917908,9.758759
0.3477478,-0.98220825,9.658203
0.36689758,-0.9630585,9.696503
0.33337402,-0.9630585,9.725235
0.36210632,-0.94869995,9.725235
0.40042114,-0.93911743,9.619888
0.38604736,-0.9582672,9.768326
0.41477966,-0.95347595,9.725235
0.38604736,-0.95347595,9.634262
0.4052124,-0.95347595,9.701294
0.3764801,-0.9582672,9.653412
0.38604736,-0.93911743,9.720444
0.4052124,-0.91038513,9.672562
0.3812561,-0.9343262000000002,9.682144
0.3477478,-0.9055939,9.691711
0.33337402,-0.89123535,9.682144
0.33816528,-0.9439087,9.68692
0.35731506,-0.93911743,9.7348175
0.35731506,-0.9582672,9.691711
0.36689758,-0.89123535,9.696503
0.34295654,-0.9247589,9.720444
0.36210632,-0.9008026,9.658203
0.36210632,-0.91996765,9.720444
0.37168884,-0.8720856,9.797058
0.36689758,-0.91996765,9.696503
0.36689758,-0.8720856,9.730026
0.32859802,-0.9247589,9.758759
0.32380676,-0.8960266,9.753967
0.38604736,-0.85292053,9.749176
0.3764801,-0.8768616,9.749176
0.36689758,-0.9295349,9.801849
0.3812561,-0.93911743,9.715652
0.4052124,-0.8720856,9.811432000000002
0.40042114,-0.89123535,9.701294
0.3812561,-0.8672942999999999,9.519333
0.36210632,-0.8768616,9.471451
0.4052124,-0.89123535,9.615097
0.32859802,-0.8960266,9.595947
0.2615509,-0.9343262000000002,9.557648
0.32380676,-0.9247589,9.648621
0.32380676,-0.9439087,9.840149
0.30943298,-0.9582672,9.897614
0.40042114,-0.9151764,9.950287
0.36210632,-0.9247589,10.060425
0.33816528,-0.94869995,9.998169
0.41477966,-0.9055939,9.816208
0.38604736,-0.9582672,9.696503
0.39083862,-0.89123535,9.591156
0.42915344,-0.91996765,9.552856
0.40042114,-0.9343262000000002,9.461868
0.32380676,-0.95347595,9.500183
0.3764801,-1.0061493,9.524124
0.41477966,-0.9630585,9.538483
0.3477478,-1.0013733,9.605530000000002
0.40042114,-0.95347595,9.619888
0.3764801,-0.99658203,9.639038
0.42915344,-0.9630585,9.701294
0.4099884,-0.93911743,9.715652
0.40042114,-0.9343262000000002,9.710876
0.4052124,-0.9008026,9.691711
0.40042114,-0.8768616,9.773117
0.41477966,-0.8720856,9.720444
0.36210632,-0.8577118,9.7348175
0.37168884,-0.814621,9.801849
0.39083862,-0.84814453,9.777908
0.31422424,-0.8289795,9.801849
0.3764801,-0.8098297,9.811432000000002
0.30943298,-0.7954712,9.835373
0.26634216,-0.7858887,9.82579
0.3190155,-0.7667389,9.758759
0.3190155,-0.7954712,9.835373
0.35253906,-0.79067993,9.816208
0.35253906,-0.77630615,9.682144
0.3477478,-0.77630615,9.725235
0.3764801,-0.8194122299999999,9.706085
0.34295654,-0.8194122299999999,9.696503
0.38604736,-0.8672942999999999,9.682144
0.4052124,-0.8433532999999999,9.701294
0.33337402,-0.84814453,9.725235
0.31422424,-0.8672942999999999,9.715652
0.35253906,-0.93911743,9.634262
0.31422424,-0.91038513,9.715652
0.2902832,-0.91996765,9.682144
0.33816528,-0.93911743,9.696503
0.29986572,-0.99658203,9.7395935
0.35253906,-0.9917908,9.710876
0.37168884,-0.9582672,9.7395935
0.31422424,-0.9247589,9.691711
0.33816528,-0.9582672,9.792267
0.3812561,-0.8960266,9.715652
0.34295654,-0.95347595,9.677353
0.35253906,-0.9295349,9.66777
0.37168884,-0.95347595,9.68692
0.4099884,-0.9247589,9.648621
0.36689758,-0.91996765,9.682144
0.36689758,-0.88165283,9.725235
0.33816528,-0.9055939,9.730026
0.38604736,-0.8577118,9.763535
0.40042114,-0.8864440999999998,9.725235
0.3764801,-0.86250305,9.710876
0.38604736,-0.77630615,9.859314
0.35731506,-0.84814453,9.840149
0.46266174,-0.83377075,9.710876
0.42915344,-0.88165283,9.672562
0.4099884,-0.8194122299999999,9.720444
0.39083862,-0.85292053,9.706085
0.32380676,-0.7954712,9.677353
0.4099884,-0.838562,9.643829
0.3477478,-0.84814453,9.701294
0.35253906,-0.8433532999999999,9.68692
0.32859802,-0.83377075,9.715652
0.43392944,-0.8577118,9.581589
0.3764801,-0.88165283,9.720444
0.3812561,-0.8241882299999999,9.682144
0.38604736,-0.86250305,9.696503
0.38604736,-0.88165283,9.710876
0.39562988,-0.838562,9.7395935
0.40042114,-0.84814453,9.720444
0.41477966,-0.8720856,9.691711
0.35731506,-0.9008026,9.68692
0.38604736,-0.8960266,9.730026
0.35253906,-0.88165283,9.701294
0.37168884,-0.8864440999999998,9.7348175
0.39562988,-0.8864440999999998,9.758759
0.41957092,-0.8720856,9.662979000000002
0.34295654,-0.89123535,9.7827
0.40042114,-0.8960266,9.696503
0.36210632,-0.8672942999999999,9.753967
0.4099884,-0.8433532999999999,9.696503
0.3764801,-0.8289795,9.677353
0.36689758,-0.8577118,9.68692
0.36689758,-0.8050384499999998,9.68692
0.37168884,-0.8577118,9.715652
0.38604736,-0.83377075,9.720444
0.3764801,-0.8194122299999999,9.787491
0.34295654,-0.86250305,9.749176
0.32859802,-0.8050384499999998,9.811432000000002
0.32859802,-0.8433532999999999,9.710876
0.36210632,-0.8672942999999999,9.682144
0.36689758,-0.8768616,9.706085
0.36210632,-0.86250305,9.691711
0.36689758,-0.8672942999999999,9.68692
0.3764801,-0.9008026,9.753967
0.38604736,-0.86250305,9.710876
0.37168884,-0.8577118,9.768326
0.36689758,-0.8672942999999999,9.677353
0.38604736,-0.8433532999999999,9.820999
0.3812561,-0.8768616,9.710876
0.3477478,-0.9055939,9.706085
0.39562988,-0.8960266,9.797058
0.3812561,-0.84814453,9.672562
0.41477966,-0.85292053,9.7348175
0.3812561,-0.88165283,9.725235
0.40042114,-0.9055939,9.691711
0.37168884,-0.84814453,9.68692
0.36689758,-0.8194122299999999,9.672562
0.36689758,-0.86250305,9.658203
0.41957092,-0.8960266,9.744385
0.35253906,-0.8289795,9.710876
0.4052124,-0.9008026,9.68692
0.32859802,-0.9055939,9.648621
0.3812561,-0.9295349,9.691711
0.35253906,-0.91996765,9.730026
0.35253906,-0.8864440999999998,9.777908
0.35253906,-0.9055939,9.7348175
0.31422424,-0.9055939,9.7395935
0.3812561,-0.88165283,9.696503
0.36689758,-0.91038513,9.672562
0.34295654,-0.9151764,9.658203
0.33816528,-0.8864440999999998,9.701294
0.3764801,-0.89123535,9.629471
0.36689758,-0.8960266,9.595947
0.36210632,-0.89123535,9.706085
0.38604736,-0.83377075,9.634262
0.3190155,-0.8433532999999999,9.648621
0.33337402,-0.8864440999999998,9.763535
0.36689758,-0.84814453,9.768326
0.3812561,-0.91038513,9.744385
0.39083862,-0.838562,9.710876
0.3812561,-0.8577118,9.797058
0.38604736,-0.83377075,9.677353
0.38604736,-0.8289795,9.82579
0.41957092,-0.8577118,9.854523
0.36689758,-0.814621,9.806641
0.34295654,-0.8433532999999999,9.787491
0.39562988,-0.86250305,9.773117
0.33337402,-0.86250305,9.7348175
0.31422424,-0.8050384499999998,9.830582
0.4052124,-0.8577118,9.662979000000002
0.36689758,-0.8241882299999999,9.514542
0.3477478,-0.8577118,9.471451
0.32859802,-0.838562,9.485809
0.33337402,-0.838562,9.514542
0.2902832,-0.86250305,9.586365
0.2902832,-0.9151764,9.763535
0.3477478,-0.94869995,9.907196
0.29986572,-0.9295349,9.964661
0.35253906,-0.9295349,9.921555
0.35731506,-0.9630585,9.993378
0.37168884,-0.9151764,9.931137
0.42436218,-0.91038513,9.768326
0.42915344,-0.8672942999999999,9.66777
0.41957092,-0.86250305,9.610306
0.4099884,-0.9295349,9.543274
0.41957092,-0.9055939,9.46666
0.4052124,-0.9295349,9.524124
0.39562988,-0.9582672,9.543274
0.36689758,-0.9295349,9.581589
0.39083862,-0.94869995,9.5767975
0.36210632,-0.91996765,9.62468
0.32859802,-0.9151764,9.753967
0.3477478,-0.8864440999999998,9.787491
0.35731506,-0.89123535,9.797058
0.33337402,-0.85292053,9.868881
0.40042114,-0.83377075,9.859314
0.3477478,-0.79067993,9.749176
0.37168884,-0.8002472,9.811432000000002
0.35253906,-0.7380065999999998,9.777908
0.30943298,-0.74757385,9.811432000000002
0.35253906,-0.7667389,9.878464
0.28070068,-0.74757385,9.835373
0.30943298,-0.7188568,9.7827
0.2902832,-0.73321533,9.82579
0.30943298,-0.7236327999999999,9.878464
0.28070068,-0.74757385,9.792267
0.33337402,-0.7188568,9.7395935
0.32859802,-0.70448303,9.773117
0.32380676,-0.7571564,9.68692
0.3190155,-0.7380065999999998,9.572006
0.24240112,-0.8050384499999998,9.643829
0.33337402,-0.838562,9.629471
0.33816528,-0.84814453,9.715652
0.32380676,-0.814621,9.696503
0.24240112,-0.838562,9.615097
0.3477478,-0.8768616,9.706085
0.30464172,-0.9055939,9.720444
0.2902832,-0.9008026,9.62468
0.28549194,-0.91038513,9.706085
0.29986572,-0.9630585,9.701294
0.26634216,-0.93911743,9.730026
0.27592468,-0.9295349,9.777908
0.28070068,-1.0205231,9.701294
0.3190155,-0.9343262000000002,9.696503
0.2902832,-0.9343262000000002,9.710876
0.36210632,-0.93911743,9.725235
0.3477478,-0.9151764,9.715652
0.30943298,-0.9151764,9.744385
0.28549194,-0.9055939,9.753967
0.29507446,-0.9055939,9.706085
0.29986572,-0.9151764,9.720444
0.27113342,-0.8577118,9.68692
0.2902832,-0.8577118,9.768326
0.28070068,-0.85292053,9.710876
0.30464172,-0.838562,9.744385
0.33337402,-0.86250305,9.706085
0.33816528,-0.8289795,9.883255
0.29507446,-0.8241882299999999,9.792267
