accX,accY,accZ
-0.07543945,9.746185,8838637236
-0.14726257,9.794083,8844478590
-0.12809753,9.755768,8844909163
-0.12809753,9.837173,8848330413
-0.14247131,9.856323,8857028226
-0.12332153,9.770142,8857216715
-0.08979797,9.750977,8860495830
-0.11853027,9.7845,8864335726
-0.12332153,9.7270355,8868888486
-0.12332153,9.774918,8873048799
-0.10894775400000001,9.808441,8877485049
-0.12332153,9.746185,8881795257
-0.12809753,9.827591,8886078174
-0.1328888,9.798859,8890722340
-0.14726257,9.7845,8894935153
-0.104156494,9.755768,8899238017
-0.080215454,9.8228,8904455465
-0.051483154,9.827591,8908204840
-0.15205383,9.818024000000001,8912557028
-0.12332153,9.755768,8916954319
-0.11373901,9.80365,8921651142
-0.08979797,9.789291,8925869944
-0.12332153,9.894638,8930886246
-0.085006714,9.808441,8935595778
-0.1328888,9.846756,8939604476
-0.13768005,9.755768,8947219996
-0.13768005,9.7845,8949553434
-0.09458923,9.818024000000001,8954593955
-0.15205383,9.8228,8956802913
-0.11853027,9.76535,8961142132
-0.15205383,9.750977,8965760830
-0.14247131,9.841965,8969986767
-0.10894775400000001,9.808441,8974296507
-0.13768005,9.794083,8979173121
-0.10894775400000001,9.755768,8983682132
-0.11373901,9.813232000000001,8988098121
-0.15205383,9.798859,8992442028
-0.08979797,9.813232000000001,8996746090
-0.12809753,9.794083,9001056194
-0.11853027,9.789291,9005506871
-0.07064819,9.798859,9009922236
-0.09458923,9.770142,9014565621
-0.11373901,9.722244,9018687601
-0.09458923,9.779709,9023650986
-0.09938049,9.808441,9028831976
-0.07543945,9.770142,9033772861
-0.10894775400000001,9.755768,9037495517
-0.080215454,9.760558999999999,9041783903
-0.14247131,9.856323,9047359684
-0.12332153,9.798859,9049445726
-0.09938049,9.813232000000001,9053914528
-0.08979797,9.736618,9058414996
-0.11853027,9.794083,9064281611
-0.09458923,9.827591,9066803330
-0.10894775400000001,9.770142,9071216038
-0.11853027,9.798859,9076517757
-0.07064819,9.841965,9080935934
-0.16641235,9.832382,9085210361
-0.12809753,9.779709,9089789111
-0.11373901,9.746185,9095305101
-0.07064819,9.80365,9098886976
-0.1616211,9.837173,9104325465
-0.09458923,9.794083,9107360465
-0.12332153,9.794083,9112077496
-0.08979797,9.80365,9116336455
-0.085006714,9.7270355,9121349788
-0.10894775400000001,9.818024000000001,9125520205
-0.15682983,9.798859,9129748746
-0.11853027,9.760558999999999,9134206923
-0.07064819,9.770142,9138913434
-0.09458923,9.875473,9144146923
-0.12332153,9.80365,9147043278
-0.080215454,9.80365,9151007809
-0.080215454,9.770142,9155170726
-0.11853027,9.8228,9159618173
-0.1328888,9.760558999999999,9164401455
-0.10894775400000001,9.808441,9168473330
-0.104156494,9.846756,9172727028
-0.08979797,9.808441,9177714059
-0.11373901,9.76535,9182527340
-0.1328888,9.779709,9186549684
-0.11373901,9.846756,9190953278
-0.13768005,9.851532,9195191298
-0.09938049,9.760558999999999,9200089059
-0.09938049,9.875473,9204606767
-0.10894775400000001,9.760558999999999,9208246298
-0.11853027,9.736618,9213157705
-0.12809753,9.80365,9217527548
-0.104156494,9.8228,9222761923
-0.104156494,9.813232000000001,9227564111
-0.104156494,9.798859,9233534944
-0.09938049,9.7845,9236162444
-0.10894775400000001,9.750977,9239989111
-0.09458923,9.865905999999999,9243885726
-0.09938049,9.755768,9247787548
-0.051483154,9.779709,9252169267
-0.12809753,9.7845,9256613121
-0.11853027,9.813232000000001,9260789788
-0.085006714,9.789291,9265415517
-0.08979797,9.837173,9269620205
-0.12809753,9.774918,9274145153
-0.104156494,9.760558999999999,9278504267
-0.104156494,9.770142,9282857861
-0.11853027,9.779709,9288040153
-0.1328888,9.770142,9291974892
-0.07543945,9.779709,9296644423
-0.15205383,9.76535,9301009007
-0.13768005,9.861114500000001,9305327392
-0.10894775400000001,9.7270355,9310179944
-0.10894775400000001,9.818024000000001,9314663746
-0.13768005,9.76535,9318756403
-0.09938049,9.741408999999999,9324256350
-0.09938049,9.774918,9327927965
-0.09458923,9.774918,9334355830
-0.08979797,9.7845,9338516455
-0.10894775400000001,9.76535,9341512705
-0.10894775400000001,9.8228,9349525621
-0.06585693,9.794083,9350446819
-0.1616211,9.8228,9354073382
-0.13768005,9.8228,9358219840
-0.080215454,9.827591,9364314371
-0.10894775400000001,9.741408999999999,9367926090
-0.12809753,9.880264,9371367861
-0.11373901,9.770142,9375881038
-0.14726257,9.808441,9380230569
-0.09938049,9.779709,9384580934
-0.1328888,9.7845,9389654736
-0.1328888,9.760558999999999,9393817340
-0.09938049,9.750977,9398241923
-0.09938049,9.746185,9402484007
-0.12332153,9.80365,9406624163
-0.12332153,9.755768,9411520882
-0.11373901,9.846756,9415873798
-0.09938049,9.846756,9420336194
-0.12809753,9.76535,9425438903
-0.104156494,9.837173,9429296611
-0.09458923,9.736618,9434255309
-0.11853027,9.794083,9437825257
-0.104156494,9.755768,9442118121
-0.14726257,9.770142,9451008694
-0.12332153,9.750977,9452852496
-0.14247131,9.813232000000001,9455122600
-0.1616211,9.770142,9459079319
-0.08979797,9.856323,9463799944
-0.07064819,9.760558999999999,9468436715
-0.10894775400000001,9.7270355,9472332288
-0.104156494,9.7845,9476744684
-0.14247131,9.827591,9481411663
-0.09458923,9.7845,9485631767
-0.085006714,9.80365,9490590725
-0.11373901,9.760558999999999,9494993434
-0.15682983,9.774918,9499397965
-0.11853027,9.76535,9503897392
-0.15682983,9.7270355,9508152652
-0.09458923,9.832382,9512382340
-0.1328888,9.770142,9516803225
-0.09938049,9.80365,9521354267
-0.12332153,9.8228,9526605048
-0.10894775400000001,9.794083,9530804267
-0.12809753,9.755768,9535410986
-0.15205383,9.832382,9541278590
-0.11853027,9.746185,9544568017
-0.11373901,9.837173,9548336194
-0.12332153,9.813232000000001,9553099944
-0.10894775400000001,9.789291,9556136402
-0.104156494,9.760558999999999,9560493382
-0.14247131,9.774918,9565123746
-0.104156494,9.741408999999999,9569339059
-0.1328888,9.731827000000001,9573617652
-0.09458923,9.808441,9578653173
-0.15205383,9.808441,9582405830
-0.10894775400000001,9.808441,9588427652
-0.14726257,9.774918,9593602809
-0.080215454,9.794083,9596614059
-0.1328888,9.818024000000001,9601065934
-0.080215454,9.7845,9605579892
-0.080215454,9.861114500000001,9610092548
-0.09458923,9.755768,9614568434
-0.085006714,9.813232000000001,9618711715
-0.14726257,9.794083,9622830569
-0.09458923,9.760558999999999,9627234527
-0.12809753,9.76535,9634438642
-0.085006714,9.76535,9637609736
-0.11853027,9.770142,9642050257
-0.11853027,9.76535,9649112027
-0.11853027,9.837173,9649300986
-0.104156494,9.731827000000001,9653170673
-0.1328888,9.7270355,9657464371
-0.1328888,9.760558999999999,9661908642
-0.12809753,9.779709,9666432080
-0.11853027,9.779709,9670528434
-0.12332153,9.794083,9675034059
-0.12332153,9.755768,9680018902
-0.12809753,9.851532,9684508590
-0.15205383,9.760558999999999,9688551298
-0.12809753,9.798859,9693305048
-0.104156494,9.856323,9697676507
-0.14726257,9.798859,9702022027
-0.09458923,9.832382,9706103382
-0.10894775400000001,9.7845,9710396923
-0.16641235,9.818024000000001,9714561767
-0.11373901,9.741408999999999,9719230829
-0.11373901,9.794083,9724237392
-0.13768005,9.80365,9728927184
-0.15205383,9.837173,9734304684
-0.15205383,9.770142,9736579423
-0.14247131,9.808441,9740917913
-0.09938049,9.774918,9746005413
-0.13768005,9.755768,9749856454
-0.09938049,9.789291,9753882548
-0.1328888,9.841965,9758442444
-0.1328888,9.7845,9763410100
-0.12332153,9.774918,9767283902
-0.07064819,9.808441,9771859788
-0.1616211,9.827591,9776010204
-0.14726257,9.808441,9780789423
-0.104156494,9.861114500000001,9785609319
-0.11373901,9.7845,9789170204
-0.11853027,9.789291,9794081142
-0.15682983,9.750977,9798192809
-0.11853027,9.7845,9802710986
-0.09938049,9.846756,9807218746
-0.10894775400000001,9.7845,9811532340
-0.14247131,9.818024000000001,9816162236
-0.14247131,9.779709,9820219944
-0.14726257,9.827591,9824801402
-0.08979797,9.750977,9829127288
-0.10894775400000001,9.7845,9833422184
-0.085006714,9.798859,9838059163
-0.104156494,9.76535,9842400048
-0.085006714,9.770142,9846629423
-0.09938049,9.789291,9851255777
-0.13768005,9.80365,9855455361
-0.13768005,9.832382,9859971246
-0.15205383,9.755768,9864409892
-0.12809753,9.76535,9869105777
-0.104156494,9.808441,9873442132
-0.10894775400000001,9.736618,9877661871
-0.14726257,9.794083,9882017340
-0.09458923,9.76535,9886380100
-0.06585693,9.750977,9890857704
-0.15205383,9.7845,9895257965
-0.104156494,9.8228,9899684267
-0.11853027,9.774918,9903853017
-0.15682983,9.7270355,9908238642
-0.09458923,9.76535,9912636819
-0.14726257,9.7030945,9916992600
-0.13768005,9.722244,9921494632
-0.12332153,9.789291,9926127861
-0.11853027,9.789291,9931744111
-0.13768005,9.813232000000001,9934837913
-0.14247131,9.707886,9939266506
-0.07543945,9.818024000000001,9944595100
-0.07543945,9.746185,9948120256
-0.14247131,9.717467999999998,9952471350
-0.11373901,9.770142,9956820777
-0.1328888,9.832382,9962555413
-0.12809753,9.760558999999999,9965584527
-0.12809753,9.760558999999999,9970014215
-0.08979797,9.736618,9974436871
-0.12332153,9.7845,9978759059
-0.12332153,9.813232000000001,9983406142
-0.18077087,9.841965,9987481350
-0.15205383,9.741408999999999,9991953642
-0.11373901,9.808441,9996389371
-0.12809753,9.7845,10000794527
-0.11373901,9.789291,10005358121
-0.12809753,9.798859,10009806142
-0.104156494,9.841965,10014259006
-0.08979797,9.827591,10018564163
-0.12809753,9.770142,10022967184
-0.11853027,9.770142,10027428329
-0.11853027,9.755768,10032790100
-0.16641235,9.746185,10036158798
-0.17120361,9.794083,10040814944
-0.11373901,9.841965,10046349267
-0.085006714,9.760558999999999,10049397236
-0.14247131,9.80365,10054244736
-0.11853027,9.808441,10058652756
-0.085006714,9.774918,10062652131
-0.104156494,9.7845,10066928798
-0.15205383,9.770142,10071393694
-0.13768005,9.789291,10075772548
-0.07064819,9.76535,10080404319
-0.11373901,9.798859,10084696715
-0.15205383,9.760558999999999,10088888746
-0.09938049,9.837173,10093660048
-0.080215454,9.712677000000001,10098006142
-0.12332153,9.736618,10102633538
-0.11853027,9.7270355,10106736142
-0.15205383,9.794083,10111207079
-0.19035339999999998,9.770142,10115681194
-0.16641235,9.818024000000001,10120069527
-0.12809753,9.794083,10124498902
-0.10894775400000001,9.813232000000001,10128706194
-0.12332153,9.818024000000001,10133713434
-0.12332153,9.827591,10138936038
-0.104156494,9.789291,10142926975
-0.1328888,9.832382,10146551923
-0.12332153,9.7845,10150868017
-0.1328888,9.837173,10155217131
-0.08979797,9.770142,10161525725
-0.104156494,9.789291,10163997548
-0.09938049,9.7845,10168509736
-0.11853027,9.789291,10172973902
-0.14247131,9.693527,10177131454
-0.1616211,9.770142,10181774371
-0.11853027,9.779709,10186138746
-0.12809753,9.741408999999999,10190667288
-0.14247131,9.774918,10194675881
-0.12809753,9.750977,10199356871
-0.16641235,9.865905999999999,10203880413
-0.14726257,9.808441,10208205673
-0.085006714,9.8228,10212561871
-0.12809753,9.798859,10216925361
-0.11373901,9.779709,10221296194
-0.11373901,9.76535,10227532548
-0.12332153,9.731827000000001,10231052236
-0.11853027,9.885056,10234362704
-0.14726257,9.818024000000001,10239966090
-0.085006714,9.837173,10244951611
-0.10894775400000001,9.813232000000001,10247762131
-0.08979797,9.818024000000001,10252154631
-0.07543945,9.660003999999999,10256556038
-0.09458923,9.870697,10260922131
-0.15205383,9.818024000000001,10265369788
-0.10894775400000001,9.813232000000001,10269684371
-0.06585693,9.832382,10274065256
-0.104156494,9.808441,10278361663
-0.085006714,9.813232000000001,10282830308
-0.09938049,9.7845,10287191558
-0.09458923,9.770142,10291622808
-0.09938049,9.7845,10296638173
-0.12332153,9.7845,10300436767
-0.09938049,9.813232000000001,10304993121
-0.1616211,9.731827000000001,10309342808
-0.15682983,9.813232000000001,10313877600
-0.13768005,9.7845,10318076506
-0.12332153,9.770142,10322487704
-0.15205383,9.770142,10327146038
-0.1616211,9.789291,10331416142
-0.11853027,9.736618,10336145517
-0.16641235,9.7270355,10340215725
-0.1328888,9.7270355,10344964683
-0.10894775400000001,9.827591,10349322548
-0.080215454,9.794083,10353318277
-0.12332153,9.861114500000001,10357865621
-0.09458923,9.798859,10362185777
-0.09458923,9.679153,10366616871
-0.09938049,9.76535,10371033954
-0.11373901,9.731827000000001,10375390256
-0.046707153,9.779709,10379865829
-0.104156494,9.731827000000001,10384374163
-0.104156494,9.808441,10388680048
-0.10894775400000001,9.798859,10393063538
-0.14247131,9.798859,10397451038
-0.08979797,9.808441,10401907965
-0.09938049,9.856323,10406286767
-0.1328888,9.770142,10410710517
-0.1616211,9.80365,10415214215
-0.14726257,9.741408999999999,10419618746
-0.1616211,9.7845,10424355100
-0.080215454,9.808441,10428315569
-0.10894775400000001,9.818024000000001,10433109215
-0.11373901,9.736618,10437467652
-0.11853027,9.741408999999999,10441544058
-0.06585693,9.789291,10446678694
-0.104156494,9.789291,10450323173
-0.11373901,9.760558999999999,10454715881
-0.104156494,9.741408999999999,10459339944
-0.12809753,9.76535,10463568017
-0.11373901,9.837173,10468078954
-0.14726257,9.731827000000001,10472367079
-0.11373901,9.7845,10476678902
-0.12809753,9.789291,10481127548
-0.11373901,9.813232000000001,10485558329
-0.12332153,9.827591,10490310308
-0.15205383,9.760558999999999,10494454683
-0.1328888,9.794083,10498864475
-0.1616211,9.789291,10503363538
-0.104156494,9.798859,10507717913
-0.16641235,9.774918,10512118173
-0.13768005,9.8228,10516441454
-0.15205383,9.80365,10521126090
-0.11373901,9.717467999999998,10525244371
-0.104156494,9.798859,10529808329
-0.12332153,9.837173,10534506715
-0.11853027,9.856323,10538668381
-0.10894775400000001,9.755768,10543153225
-0.11853027,9.8228,10548151975
-0.104156494,9.779709,10551629892
-0.12809753,9.755768,10556301558
-0.08979797,9.808441,10561428121
-0.12332153,9.818024000000001,10564996663
-0.12332153,9.7845,10569389319
-0.14726257,9.7845,10573407965
-0.1328888,9.770142,10578328694
-0.1328888,9.7845,10582554371
-0.12809753,9.870697,10587151298
-0.080215454,9.818024000000001,10591548173
-0.085006714,9.818024000000001,10595809735
-0.13768005,9.746185,10600501662
-0.1328888,9.770142,10604577079
-0.09458923,9.789291,10608970204
-0.085006714,9.779709,10613408329
-0.104156494,9.774918,10617917183
-0.12809753,9.818024000000001,10622175048
-0.10894775400000001,9.794083,10626626923
-0.11853027,9.80365,10631013798
-0.1328888,9.7845,10635568694
-0.09458923,9.875473,10639789787
-0.14247131,9.851532,10644233069
-0.09938049,9.76535,10648477444
-0.09938049,9.798859,10652887756
-0.10894775400000001,9.7845,10657312131
-0.08979797,9.789291,10661723590
-0.14247131,9.827591,10666137808
-0.14247131,9.779709,10670855985
-0.12809753,9.846756,10675010725
-0.08979797,9.76535,10679214162
-0.1616211,9.7845,10683689319
-0.14726257,9.760558999999999,10688282756
-0.09938049,9.76535,10692495100
-0.104156494,9.837173,10696897079
-0.14247131,9.832382,10702149319
-0.08979797,9.779709,10706613850
-0.12332153,9.7270355,10711546298
-0.18077087,9.7270355,10714986037
-0.13768005,9.722244,10720263017
-0.1328888,9.856323,10724908017
-0.10894775400000001,9.76535,10730544215
-0.12332153,9.774918,10732703433
-0.12332153,9.846756,10737803798
-0.10894775400000001,9.813232000000001,10742762704
-0.104156494,9.794083,10747894267
-0.15682983,9.846756,10751673069
-0.13768005,9.827591,10755514735
-0.14726257,9.837173,10759295829
-0.1328888,9.8228,10763900985
-0.13768005,9.774918,10768516194
-0.12332153,9.813232000000001,10772456506
-0.13768005,9.827591,10777694996
-0.10894775400000001,9.770142,10786739162
-0.16641235,9.827591,10787079475
-0.13768005,9.875473,10790844162
-0.09458923,9.798859,10795124475
-0.1616211,9.794083,10798681975
-0.10894775400000001,9.774918,10803014787
-0.15682983,9.741408999999999,10807377652
-0.12809753,9.798859,10811699006
-0.14726257,9.818024000000001,10816087444
-0.061065674,9.755768,10821545412
-0.08979797,9.736618,10825734892
-0.14247131,9.861114500000001,10831968850
-0.17599487,9.789291,10835656662
-0.08979797,9.865905999999999,10839435204
-0.1328888,9.76535,10845367496
-0.13768005,9.755768,10850006610
-0.12332153,9.760558999999999,10853934944
-0.11853027,9.846756,10857160673
-0.12332153,9.841965,10865635360
-0.15205383,9.8228,10867589579
-0.14726257,9.770142,10868893381
-0.15205383,9.865905999999999,10873827808
-0.09938049,9.750977,10877940881
-0.15205383,9.755768,10882367756
-0.13768005,9.818024000000001,10886880725
-0.09458923,9.712677000000001,10891186662
-0.09458923,9.808441,10895550308
-0.104156494,9.746185,10900351975
-0.18556213,9.808441,10904933225
-0.15205383,9.779709,10910037027
-0.085006714,9.798859,10913984267
-0.10894775400000001,9.779709,10918319527
-0.15205383,9.779709,10922708642
-0.1328888,9.794083,10926948850
-0.11373901,9.794083,10932164110
-0.080215454,9.779709,10935502756
-0.09938049,9.770142,10939668017
-0.080215454,9.851532,10944202600
-0.14247131,9.774918,10951841767
-0.15205383,9.7845,10954012704
-0.1616211,9.80365,10959872079
-0.18077087,9.794083,10961764683
-0.13768005,9.813232000000001,10966536194
-0.11373901,9.750977,10970443225
-0.1328888,9.722244,10974712027
-0.09458923,9.8228,10979510100
-0.09458923,9.750977,10983877496
-0.14247131,9.794083,10988356454
-0.104156494,9.736618,10995531610
-0.12809753,9.755768,10997583277
-0.08979797,9.774918,11001656558
-0.09458923,9.832382,11005884006
-0.11373901,9.722244,11010406506
-0.10894775400000001,9.760558999999999,11014632392
-0.14247131,9.818024000000001,11019061402
-0.15682983,9.80365,11023564006
-0.07543945,9.8228,11028149058
-0.14247131,9.851532,11032321662
-0.10894775400000001,9.770142,11036718016
-0.10894775400000001,9.818024000000001,11041056141
-0.09458923,9.774918,11046503954
-0.13768005,9.794083,11050232652
-0.11853027,9.76535,11054304527
-0.080215454,9.741408999999999,11060496037
-0.15682983,9.813232000000001,11063466298
-0.07064819,9.851532,11067285204
-0.07064819,9.832382,11071759475
-0.11373901,9.746185,11076073433
-0.08979797,9.741408999999999,11080618537
-0.12332153,9.837173,11085418225
-0.12332153,9.837173,11089420725
-0.08979797,9.7270355,11094244579
-0.10894775400000001,9.779709,11098220152
-0.06585693,9.818024000000001,11102610204
-0.08979797,9.7845,11107130516
-0.12332153,9.741408999999999,11111511558
-0.09458923,9.7845,11115867704
-0.09938049,9.808441,11120320412
-0.12332153,9.827591,11124387079
-0.10894775400000001,9.899414,11129457235
-0.12809753,9.770142,11133345048
-0.104156494,9.736618,11138032339
-0.10894775400000001,9.770142,11142397964
-0.104156494,9.813232000000001,11148689266
-0.09458923,9.813232000000001,11151704058
-0.104156494,9.779709,11155866089
-0.14247131,9.7845,11159797391
-0.104156494,9.827591,11164167496
-0.056274414,9.8228,11168754371
-0.14726257,9.80365,11172862235
-0.11853027,9.798859,11177270256
-0.09458923,9.755768,11181861923
-0.07064819,9.794083,11186044423
-0.13768005,9.837173,11190716662
-0.1616211,9.746185,11195066506
-0.12332153,9.798859,11199580673
-0.10894775400000001,9.779709,11203992548
-0.11853027,9.750977,11208320204
-0.08979797,9.770142,11212729006
-0.17120361,9.736618,11217175829
-0.09458923,9.832382,11221395985
-0.11853027,9.827591,11225873121
-0.11853027,9.755768,11232085829
-0.11853027,9.818024000000001,11235133381
-0.10894775400000001,9.774918,11239198694
-0.10894775400000001,9.808441,11243887183
-0.09458923,9.789291,11248048902
-0.13768005,9.808441,11253672287
-0.12809753,9.770142,11257079943
-0.11853027,9.731827000000001,11261179943
-0.09938049,9.774918,11265851871
-0.12332153,9.722244,11270058850
-0.104156494,9.808441,11274310100
-0.14247131,9.818024000000001,11278870152
-0.16641235,9.813232000000001,11283244787
-0.11373901,9.875473,11287776454
-0.14726257,9.856323,11291805048
-0.07064819,9.889847,11296363277
-0.11373901,9.755768,11300559058
-0.14247131,9.76535,11305043798
-0.12332153,9.818024000000001,11309423016
-0.085006714,9.746185,11314436350
-0.1616211,9.808441,11318301141
-0.08979797,9.798859,11322587756
-0.10894775400000001,9.880264,11327121871
-0.09938049,9.7845,11332256662
-0.15682983,9.818024000000001,11336825308
-0.104156494,9.80365,11341171402
-0.11373901,9.779709,11347382600
-0.11373901,9.760558999999999,11349707964
-0.14726257,9.794083,11355580568
-0.10894775400000001,9.846756,11358954631
-0.12332153,9.7845,11365571610
-0.104156494,9.841965,11366539943
-0.12332153,9.779709,11371414423
-0.15205383,9.750977,11379338537
-0.15682983,9.760558999999999,11382899631
-0.080215454,9.76535,11384553589
-0.104156494,9.841965,11389118746
-0.09938049,9.808441,11393739579
-0.104156494,9.8228,11398203589
-0.11853027,9.779709,11402507287
-0.07543945,9.80365,11407088016
-0.11853027,9.789291,11411228173
-0.12809753,9.774918,11415734371
-0.10894775400000001,9.746185,11420512600
-0.14247131,9.736618,11424794162
-0.12332153,9.760558999999999,11429119735
-0.08979797,9.770142,11434060673
-0.09458923,9.789291,11438181871
-0.15682983,9.841965,11442339162
-0.15205383,9.841965,11446931714
-0.12809753,9.808441,11452477391
-0.13768005,9.7845,11458912600
-0.11373901,9.774918,11462868225
-0.12332153,9.846756,11466729579
-0.12332153,9.818024000000001,11469725412
-0.14726257,9.76535,11472890152
-0.15205383,9.76535,11477739735
-0.11373901,9.80365,11481819318
-0.11853027,9.798859,11486402860
-0.09938049,9.827591,11490567912
-0.104156494,9.856323,11495088798
-0.09938049,9.841965,11499325048
-0.1328888,9.794083,11503586141
-0.11373901,9.770142,11507972027
-0.14726257,9.789291,11512394579
-0.12332153,9.746185,11516543433
-0.15205383,9.794083,11521113693
-0.12332153,9.841965,11525600464
-0.17120361,9.774918,11529935256
-0.080215454,9.755768,11534319787
-0.1616211,9.746185,11538575152
-0.09458923,9.856323,11542904631
-0.11853027,9.770142,11548192704
-0.15205383,9.856323,11552231506
-0.18556213,9.851532,11556730152
-0.12809753,9.798859,11561968902
-0.11853027,9.8228,11565577287
-0.09458923,9.7270355,11569909579
-0.09458923,9.798859,11574805360
-0.09938049,9.846756,11578703225
-0.104156494,9.779709,11582800777
-0.1328888,9.7845,11587289110
-0.11853027,9.779709,11591805985
-0.1328888,9.798859,11596081923
-0.13768005,9.7270355,11601399370
-0.10894775400000001,9.798859,11605794318
-0.15205383,9.798859,11609825829
-0.14726257,9.750977,11614728954
-0.14247131,9.770142,11618813068
-0.14247131,9.7030945,11623418537
-0.14247131,9.8228,11627596818
-0.15682983,9.80365,11631957860
-0.14726257,9.841965,11636685568
-0.1328888,9.865905999999999,11640847391
-0.15205383,9.880264,11646534995
-0.10894775400000001,9.808441,11649993902
-0.11373901,9.794083,11655444787
-0.18077087,9.755768,11658529891
-0.1328888,9.798859,11662882495
-0.104156494,9.760558999999999,11667031923
-0.11853027,9.818024000000001,11671354891
-0.06585693,9.832382,11677715985
-0.104156494,9.76535,11680584214
-0.11373901,9.813232000000001,11685071506
-0.13768005,9.750977,11689197912
-0.085006714,9.827591,11693643850
-0.10894775400000001,9.760558999999999,11697790204
-0.10894775400000001,9.794083,11702221975
-0.14726257,9.779709,11706874839
-0.1328888,9.779709,11711082495
-0.14726257,9.832382,11715435152
-0.15205383,9.794083,11720319422
-0.11373901,9.731827000000001,11724860308
-0.09938049,9.846756,11728963172
-0.16641235,9.76535,11734072547
-0.09938049,9.774918,11738221662
-0.11373901,9.808441,11742614422
-0.104156494,9.80365,11747231245
-0.11373901,9.827591,11751948485
-0.12332153,9.779709,11758616870
-0.104156494,9.7845,11759444422
-0.104156494,9.779709,11767800516
-0.12809753,9.798859,11768400881
-0.11373901,9.827591,11772529995
-0.14247131,9.827591,11777383537
-0.11373901,9.80365,11782340829
-0.15682983,9.789291,11786092704
-0.1328888,9.741408999999999,11790505047
-0.12809753,9.731827000000001,11794771922
-0.12809753,9.789291,11799561766
-0.14726257,9.8228,11805108693
-0.09938049,9.808441,11808615516
-0.12809753,9.856323,11812615360
-0.12809753,9.832382,11817206089
-0.14726257,9.789291,11821340725
-0.104156494,9.813232000000001,11825693850
-0.1616211,9.8228,11830497339
-0.13768005,9.755768,11835556506
-0.12332153,9.794083,11839542027
-0.13768005,9.865905999999999,11844197912
-0.09938049,9.76535,11847673850
-0.104156494,9.80365,11853647339
-0.1616211,9.731827000000001,11857140100
-0.11853027,9.774918,11866033745
-0.06585693,9.746185,11866728954
-0.09938049,9.741408999999999,11869578120
-0.12809753,9.8228,11873593433
-0.11373901,9.7845,11878478277
-0.12332153,9.813232000000001,11882578537
-0.085006714,9.76535,11887245308
-0.12332153,9.8228,11891778850
-0.09938049,9.746185,11895933120
-0.11373901,9.731827000000001,11900605100
-0.12809753,9.8228,11904823537
-0.104156494,9.722244,11909672704
-0.104156494,9.794083,11914048068
-0.14726257,9.789291,11918195568
-0.14247131,9.808441,11922784787
-0.11373901,9.841965,11927117599
-0.13768005,9.841965,11931454318
-0.07543945,9.674362,11936446037
-0.12809753,9.774918,11941273745
-0.06585693,9.717467999999998,11948087756
-0.11373901,9.693527,11950809579
-0.14247131,9.818024000000001,11955857183
-0.12809753,9.7845,11958576662
-0.12809753,9.789291,11962719214
-0.1328888,9.750977,11969595777
-0.09458923,9.798859,11971642860
-0.08979797,9.779709,11975856558
-0.14247131,9.789291,11979698693
-0.104156494,9.832382,11983798641
-0.12332153,9.798859,11988275985
-0.15205383,9.774918,11992829006
-0.12809753,9.789291,11997287964
-0.09938049,9.8228,12001711193
-0.11373901,9.731827000000001,12006855204
-0.13768005,9.827591,12011200308
-0.1616211,9.750977,12015535672
-0.15682983,9.861114500000001,12020154527
-0.09458923,9.80365,12024522391
-0.11853027,9.722244,12028635099
-0.13768005,9.770142,12033150412
-0.12332153,9.750977,12039360568
-0.09938049,9.8228,12042005985
-0.051483154,9.856323,12047044891
-0.07543945,9.789291,12051945152
-0.12332153,9.80365,12055758693
-0.11853027,9.851532,12062499943
-0.09458923,9.80365,12064461193
-0.09458923,9.856323,12069922912
-0.12332153,9.80365,12072934266
-0.17120361,9.779709,12076647391
-0.15205383,9.8228,12080968381
-0.085006714,9.808441,12087231037
-0.11853027,9.750977,12093770516
-0.104156494,9.722244,12094511089
-0.14247131,9.789291,12098901037
-0.15205383,9.837173,12103371766
-0.08979797,9.80365,12107970412
-0.13768005,9.80365,12112147495
-0.17120361,9.827591,12116423329
-0.09458923,9.80365,12120847756
-0.07543945,9.750977,12125008224
-0.14247131,9.798859,12129633433
-0.07543945,9.798859,12134037287
-0.12332153,9.779709,12138580308
-0.17120361,9.794083,12144352026
-0.14726257,9.736618,12147689683
-0.12332153,9.7270355,12151589006
-0.10894775400000001,9.80365,12158093485
-0.12332153,9.80365,12159852026
-0.1328888,9.8228,12165032287
-0.12809753,9.693527,12169010464
-0.12809753,9.7845,12173396401
-0.12332153,9.717467999999998,12182019318
-0.13768005,9.736618,12182627756
-0.14247131,9.770142,12186433016
-0.13768005,9.813232000000001,12190667287
-0.15205383,9.794083,12195270985
-0.14247131,9.870697,12199998381
-0.12332153,9.841965,12203837287
-0.15682983,9.717467999999998,12208234162
-0.14726257,9.789291,12212774058
-0.104156494,9.712677000000001,12217075672
-0.10894775400000001,9.789291,12221646089
-0.14247131,9.798859,12226507860
-0.1328888,9.779709,12230529318
-0.15682983,9.794083,12234706870
-0.09938049,9.856323,12239200308
-0.08979797,9.813232000000001,12244541610
-0.11853027,9.80365,12248033797
-0.1328888,9.870697,12252835568
-0.1328888,9.851532,12257902235
-0.1328888,9.837173,12261318433
-0.11373901,9.80365,12265705256
-0.12809753,9.832382,12270149735
-0.14247131,9.779709,12274391245
-0.16641235,9.808441,12278593329
-0.10894775400000001,9.8228,12283131141
-0.12332153,9.818024000000001,12287761558
-0.051483154,9.7030945,12292975672
-0.12332153,9.750977,12296492391
-0.11373901,9.774918,12300797860
-0.09938049,9.76535,12305308589
-0.12809753,9.779709,12309577131
-0.12332153,9.832382,12314208537
-0.080215454,9.885056,12318492235
-0.13768005,9.779709,12322709943
-0.13768005,9.707886,12327160829
-0.11373901,9.856323,12331288901
-0.1616211,9.789291,12335981193
-0.14247131,9.813232000000001,12340363433
-0.08979797,9.76535,12346404578
-0.09938049,9.818024000000001,12350121193
-0.09458923,9.779709,12353830724
-0.14247131,9.818024000000001,12359099266
-0.11373901,9.794083,12362572443
-0.12332153,9.7845,12367181037
-0.09458923,9.76535,12371389578
-0.15205383,9.818024000000001,12375523068
-0.14247131,9.856323,12379913328
-0.11853027,9.80365,12384163068
-0.09458923,9.865905999999999,12388950828
-0.12809753,9.750977,12393117391
-0.15205383,9.7030945,12397858693
-0.09938049,9.818024000000001,12403904422
-0.11373901,9.779709,12406335724
-0.12332153,9.746185,12411187026
-0.085006714,9.875473,12415470568
-0.09938049,9.731827000000001,12419752235
-0.09938049,9.818024000000001,12424130776
-0.08979797,9.731827000000001,12428760568
-0.13768005,9.760558999999999,12432882756
-0.15205383,9.798859,12438831506
-0.09458923,9.746185,12441768537
-0.056274414,9.8228,12446296766
-0.11853027,9.841965,12451915568
-0.11853027,9.827591,12457512078
-0.19514465,9.750977,12461260047
-0.15682983,9.827591,12466123485
-0.14726257,9.880264,12470266141
-0.1616211,9.76535,12474536297
-0.11373901,9.846756,12476837235
-0.12809753,9.779709,12481483953
-0.12332153,9.746185,12485743901
-0.1616211,9.808441,12491960881
-0.07543945,9.789291,12494535568
-0.10894775400000001,9.798859,12501087495
-0.11853027,9.818024000000001,12503119526
-0.104156494,9.80365,12509194787
-0.11373901,9.755768,12512722287
-0.08979797,9.7845,12517485620
-0.11373901,9.746185,12523747703
-0.12809753,9.80365,12525464578
-0.11373901,9.736618,12529565464
-0.11853027,9.798859,12534146714
-0.17120361,9.798859,12538972547
-0.15205383,9.770142,12544936818
-0.12332153,9.750977,12547726349
-0.032333374,9.7845,12552905620
-0.11373901,9.80365,12558472026
-0.085006714,9.808441,12561445099
-0.14247131,9.7845,12564925933
-0.07064819,9.841965,12569518068
-0.1616211,9.779709,12574334422
-0.14247131,9.76535,12578128172
-0.061065674,9.774918,12582563120
-0.11373901,9.832382,12587152443
-0.14726257,9.76535,12592421714
-0.07543945,9.80365,12596779787
-0.104156494,9.846756,12600329474
-0.1328888,9.774918,12604852547
-0.11853027,9.837173,12609006662
-0.15682983,9.755768,12613504526
-0.10894775400000001,9.779709,12618192599
-0.104156494,9.7270355,12622642964
-0.12332153,9.7845,12627243641
-0.11373901,9.8228,12631116037
-0.11373901,9.770142,12635312443
-0.11373901,9.808441,12639778953
-0.11853027,9.669571000000001,12645696037
-0.12809753,9.8228,12651098589
-0.11373901,9.856323,12653698016
-0.08979797,9.846756,12657664422
-0.061065674,9.760558999999999,12661825360
-0.085006714,9.722244,12666237130
-0.085006714,9.937729,12671303380
-0.11373901,9.76535,12675558953
-0.104156494,9.774918,12681118120
-0.15205383,9.851532,12683899370
-0.12809753,9.746185,12688364526
-0.07543945,9.760558999999999,12692637599
-0.085006714,9.870697,12697296870
-0.12809753,9.80365,12701667287
-0.12809753,9.774918,12706021401
-0.11373901,9.808441,12710432808
-0.11853027,9.798859,12714954005
-0.11373901,9.755768,12719263120
-0.09938049,9.779709,12723736558
-0.080215454,9.789291,12728376662
-0.12809753,9.741408999999999,12732989318
-0.10894775400000001,9.770142,12736831401
-0.13768005,9.851532,12741273433
-0.13768005,9.8228,12746666974
-0.15205383,9.794083,12750289735
-0.1616211,9.7845,12756592755
-0.1328888,9.8228,12759679683
-0.09458923,9.7845,12763709995
-0.17120361,9.80365,12768175620
-0.11373901,9.870697,12772032808
-0.09938049,9.774918,12776598276
-0.10894775400000001,9.894638,12780942860
-0.104156494,9.851532,12786072495
-0.08979797,9.750977,12789798328
-0.104156494,9.841965,12794562078
-0.11373901,9.7845,12798486349
-0.14247131,9.827591,12802969110
-0.11373901,9.779709,12807487860
-0.1328888,9.80365,12811763641
-0.1328888,9.851532,12816168016
-0.14726257,9.779709,12820732026
-0.13768005,9.717467999999998,12825359526
-0.09938049,9.779709,12829743120
-0.13768005,9.7845,12834152078
-0.11373901,9.80365,12838407495
-0.11373901,9.779709,12843318432
-0.13768005,9.80365,12848261141
-0.09458923,9.770142,12852913276
-0.11373901,9.818024000000001,12856230724
-0.11853027,9.746185,12860651141
-0.056274414,9.827591,12864825672
-0.09458923,9.808441,12869504578
-0.12809753,9.889847,12873475880
-0.1328888,9.813232000000001,12878012287
-0.14247131,9.789291,12882301401
-0.051483154,9.846756,12886983693
-0.104156494,9.808441,12893013901
-0.11373901,9.755768,12897571818
-0.11853027,9.861114500000001,12900184057
-0.1328888,9.8228,12904566349
-0.14726257,9.832382,12908963432
-0.1328888,9.770142,12913450724
-0.08979797,9.856323,12917778276
-0.10894775400000001,9.808441,12922176401
-0.104156494,9.712677000000001,12926597964
-0.08979797,9.770142,12934669110
-0.15205383,9.774918,12936243172
-0.12809753,9.808441,12941379318
-0.06585693,9.841965,12945016349
-0.10894775400000001,9.770142,12950445099
-0.104156494,9.827591,12952923016
-0.07064819,9.80365,12958196297
-0.10894775400000001,9.789291,12962030099
-0.09938049,9.92337,12966348693
-0.12809753,9.770142,12971061349
-0.13768005,9.832382,12975983537
-0.1328888,9.813232000000001,12979459266
-0.10894775400000001,9.8228,12983963745
-0.10894775400000001,9.861114500000001,12989113641
-0.11853027,9.865905999999999,12992548485
-0.11853027,9.794083,12997397599
-0.11853027,9.774918,13001396714
-0.1328888,9.818024000000001,13005725412
-0.11853027,9.818024000000001,13010224578
-0.08979797,9.875473,13014427912
-0.10894775400000001,9.750977,13019313953
-0.032333374,9.827591,13023434109
-0.11853027,9.755768,13027686037
-0.1328888,9.8228,13032331714
-0.12809753,9.76535,13036654526
-0.14726257,9.736618,13040968016
-0.1616211,9.789291,13045439630
-0.104156494,9.80365,13049853589
-0.12809753,9.813232000000001,13054281401
-0.11373901,9.851532,13058598380
-0.09458923,9.755768,13062888589
-0.10894775400000001,9.808441,13067512547
-0.11373901,9.818024000000001,13071742443
-0.12332153,9.750977,13076370359
-0.09458923,9.80365,13080776766
-0.14726257,9.832382,13085412807
-0.09938049,9.746185,13089537807
-0.14726257,9.8228,13093963172
-0.12332153,9.813232000000001,13098644266
-0.11373901,9.741408999999999,13102642547
-0.14726257,9.8228,13107226557
-0.11373901,9.76535,13112069109
-0.12809753,9.80365,13116499109
-0.14726257,9.818024000000001,13120722755
-0.085006714,9.827591,13125139370
-0.13768005,9.770142,13129305932
-0.1328888,9.798859,13133568953
-0.104156494,9.808441,13138174422
-0.09938049,9.818024000000001,13142827339
-0.14726257,9.837173,13146904839
-0.15682983,9.837173,13152377026
-0.12809753,9.798859,13157048797
-0.14247131,9.832382,13160006818
-0.15682983,9.861114500000001,13164462130
-0.085006714,9.8228,13169050828
-0.10894775400000001,9.837173,13173368693
-0.11853027,9.779709,13177940776
-0.12809753,9.846756,13182221974
-0.11853027,9.736618,13187237182
-0.09938049,9.789291,13191613797
-0.18077087,9.798859,13196446922
-0.06585693,9.856323,13200835932
-0.08979797,9.808441,13205449943
-0.12809753,9.760558999999999,13209531453
-0.11853027,9.698303,13213998745
-0.14247131,9.827591,13218383536
-0.12809753,9.693527,13222854318
-0.14726257,9.794083,13227907651
-0.15682983,9.856323,13231775203
-0.09458923,9.80365,13236237547
