accX,accY,accZ
0.2328186,-2.8880005,9.481033
0.22325134,-2.830536,9.208084
0.18493652,-2.8161774,9.212875
0.165802,-2.7922363,9.097946
0.15142822,-2.8448944,9.164993
0.09875488,-2.8927917,9.27034
0.12271118,-2.950241,9.356522
0.15621948,-3.1178436,9.44751
0.09875488,-3.1417847,9.342163
0.13227844,-3.1561432,9.313431
0.12271118,-3.194458,9.2846985
0.15142822,-3.2040253,9.380463
0.2040863,-3.1896667,9.28949
0.20887756,-3.1753082,9.404419
0.23760986,-3.1896667,9.28949
0.27113342,-3.1513672,9.30864
0.20887756,-3.0986938,9.366104000000002
0.1993103,-3.0986938,9.375687
0.19451904,-3.08432,9.413986
0.18493652,-3.0220795,9.409195
0.2040863,-3.060379,9.42836
0.18972778,-3.036438,9.404419
0.165802,-3.0651703,9.490601
0.11791992,-3.08432,9.437927
0.09397888,-3.0029144,9.399628
0.1370697,-3.036438,9.399628
0.11312866,-3.1561432,9.4427185
0.17059326,-3.1657257,9.461868
0.14665222,-3.3141632,9.581589
0.165802,-3.3381042,9.552856
0.27113342,-3.3189545,9.275131
0.30943298,-3.3668365,9.2846985
0.21846008,-3.4099274,9.279907
0.27113342,-3.3955688,9.423569
0.21846008,-3.3141632,9.294281
0.21846008,-3.122635,8.896834999999998
0.17536926,-2.988556,8.633484
0.15142822,-2.902359,8.700516
0.0796051,-2.8065948,8.633484
0.0460968,-2.6773071,8.499404999999998
0.055664063,-2.6581573,8.456314
0.06524658,-2.6581573,8.643051
-0.030517578,-2.6725159,8.686156999999998
-0.025741577,-2.7251892,8.705306999999998
-0.08319092,-2.6725159,8.786713
-0.08319092,-2.7251892,8.963882
-0.11192322,-2.7826538,9.13147
-0.17417908,-2.787445,9.27034
-0.23641968,-2.9071503,9.519333
-0.24121094,-2.902359,9.562424
-0.26994324,-2.9358826,9.677353
-0.2460022,-2.9310913,9.835373
-0.25558472,-3.0507965,9.911987
-0.23641968,-3.0077057,9.94072
-0.19332886,-3.036438,9.888046
-0.14065552,-2.9358826,9.758759
-0.0688324,-2.8496857,9.572006
-0.030517578,-2.854477,9.452301
-0.030517578,-2.7539215,9.294281
0.08439636,-2.715622,9.25119
0.17536926,-2.7060394,9.141052
0.2328186,-2.6437836,9.026123
0.30943298,-2.6198425,8.963882
0.36689758,-2.5097198,9.011765
0.3764801,-2.4857788,8.872894
0.42915344,-2.4331055,9.002181999999998
0.43392944,-2.4187317,9.155411
0.45309448,-2.4283142,9.193726
0.4052124,-2.356491,9.366104000000002
0.39083862,-2.337326,9.356522
0.34295654,-2.3085938,9.514542
0.30464172,-2.241562,9.572006
0.29507446,-2.2272034,9.639038
0.2328186,-2.1362152,9.749176
0.11312866,-2.0548096,9.868881
0.060455322,-1.9877777,9.888046
0.0796051,-1.9351044,9.8736725
-0.016159058,-1.834549,9.758759
-0.030517578,-1.9015808,9.701294
-0.059249878,-1.8680725,9.820999
-0.025741577,-1.8441315,9.787491
-0.054473877,-1.85849,9.820999
-0.025741577,-1.9207458,9.921555
0.0077819824,-1.9734192,9.98381
0.10354614,-2.01651,9.897614
0.060455322,-2.0787506,9.82579
0.07003784,-2.0500336,9.801849
0.17059326,-2.0787506,9.682144
0.13227844,-2.0596008,9.562424
0.1993103,-2.102707,9.404419
0.2615509,-2.0931244,9.361313
0.28070068,-2.1697388,9.44751
0.32859802,-2.2272034,9.461868
0.30943298,-2.2942352,9.46666
0.3812561,-2.265503,9.514542
0.41477966,-2.33255,9.572006
0.4099884,-2.4283142,9.600739
0.3764801,-2.423523,9.720444
0.3477478,-2.471405,9.615097
0.37168884,-2.4426727,9.615097
0.36210632,-2.3947906,9.471451
0.34295654,-2.4283142,9.461868
0.32380676,-2.4091644,9.342163
0.22802734,-2.4043732,9.323013
0.24240112,-2.4283142,9.313431
0.17536926,-2.4043732,9.303848
0.18493652,-2.4043732,9.198517
0.16101074,-2.3804321,9.28949
0.18972778,-2.399582,9.44751
0.15142822,-2.4139404,9.485809
0.1083374,-2.313385,9.504974
0.17059326,-2.33255,9.461868
0.06524658,-2.2367706,9.495392
0.14665222,-2.1936798,9.409195
0.15142822,-2.17453,9.46666
0.09397888,-2.2272034,9.519333
0.18972778,-2.265503,9.452301
0.19451904,-2.2319794,9.629471
0.22325134,-2.2750854,9.581589
0.20887756,-2.4091644,9.696503
0.25675964,-2.3804321,9.725235
0.31422424,-2.3756409,9.653412
0.3477478,-2.423523,9.749176
0.3764801,-2.4378815,9.677353
0.36210632,-2.4091644,9.658203
0.41477966,-2.3756409,9.648621
0.41477966,-2.33255,9.600739
0.41477966,-2.2702942,9.538483
0.41957092,-2.2032623,9.533691
0.40042114,-2.2032623,9.461868
0.3764801,-2.1410065,9.600739
0.32859802,-2.150589,9.62468
0.31422424,-2.0931244,9.653412
0.22802734,-2.0931244,9.639038
0.1370697,-1.9973602,9.50975
0.15142822,-1.9686279,9.461868
0.12748718,-1.9734192,9.50975
0.0077819824,-2.0021362,9.528915
0.036514282,-1.9973602,9.562424
-0.0018005371,-2.040451,9.672562
-0.016159058,-2.0787506,9.820999
-0.035308838,-2.0883331,9.931137
-0.011367798,-2.1218567,9.94072
0.0077819824,-2.2032623,9.974228
0.017364502,-2.2750854,9.907196
-0.016159058,-2.3421173,9.883255
0.0029907227,-2.4187317,9.797058
0.050872803,-2.4378815,9.753967
0.022140503,-2.5049286,9.744385
0.050872803,-2.519287,9.706085
0.14665222,-2.6006927,9.543274
0.09875488,-2.6102753,9.423569
0.1993103,-2.6677246,9.504974
0.19451904,-2.6725159,9.485809
0.18493652,-2.6820984,9.342163
0.18493652,-2.7108307,9.413986
0.17536926,-2.6820984,9.485809
0.1993103,-2.696457,9.471451
0.15621948,-2.6725159,9.50975
0.14665222,-2.6820984,9.533691
0.14186096,-2.6102753,9.50975
0.14186096,-2.653366,9.452301
0.12271118,-2.6916656,9.538483
0.14186096,-2.6820984,9.471451
0.11791992,-2.744339,9.461868
0.11791992,-2.7826538,9.413986
0.15142822,-2.739563,9.351746
0.16101074,-2.8161774,9.375687
0.165802,-2.8353271,9.265549
0.16101074,-2.8448944,9.208084
0.2328186,-2.9071503,9.241608
0.19451904,-2.8880005,9.097946
0.24719238,-2.8880005,9.09317
0.2615509,-2.988556,9.083588
0.24719238,-2.9406738,9.069229000000002
0.19451904,-2.9550323,9.026123
0.2040863,-3.0220795,9.026123
0.26634216,-3.0172882,9.054855
0.19451904,-2.9933472,9.002181999999998
0.22325134,-2.9215088,9.006973
0.21846008,-2.9358826,9.117111
0.20887756,-2.902359,9.136261
0.17059326,-2.9167328,9.27034
0.17536926,-2.8832092,9.370895
0.20887756,-2.8688507,9.413986
0.18014526,-2.8496857,9.44751
0.165802,-2.7587128,9.528915
0.29507446,-2.715622,9.4427185
0.2328186,-2.6437836,9.538483
0.23760986,-2.6485748,9.528915
0.2328186,-2.6102753,9.615097
0.21846008,-2.5671692,9.504974
0.27592468,-2.5767517,9.533691
0.23760986,-2.581543,9.433136
0.2902832,-2.5288696,9.4427185
0.24240112,-2.538437,9.46666
0.2615509,-2.5432281,9.385254
0.26634216,-2.5049286,9.375687
0.27113342,-2.533661,9.399628
0.27592468,-2.5528107,9.409195
0.30943298,-2.5671692,9.385254
0.30464172,-2.6006927,9.361313
0.32380676,-2.6581573,9.313431
0.27113342,-2.629425,9.332581
0.3190155,-2.6437836,9.318222
0.27113342,-2.6820984,9.236816
0.27113342,-2.6725159,9.241608
0.1993103,-2.7539215,9.28949
0.2615509,-2.8065948,9.236816
0.20887756,-2.7922363,9.332581
0.2328186,-2.8401184,9.313431
0.20887756,-2.8640594,9.303848
0.27592468,-2.9215088,9.279907
0.30464172,-2.8832092,9.28949
0.31422424,-2.8975677,9.1458435
0.36210632,-2.878418,9.241608
0.35731506,-2.9167328,9.179352
0.3477478,-2.9694061,9.169785
0.39083862,-2.988556,9.179352
0.3764801,-2.9741821,9.121902
0.39562988,-2.9933472,9.1506195
0.39562988,-3.036438,9.136261
0.35253906,-3.0460205,9.227234
0.32859802,-3.0460205,9.184143
0.33337402,-3.0507965,9.11232
0.2615509,-3.0651703,9.126678
0.2615509,-3.108261,9.169785
0.29986572,-3.1561432,9.13147
0.24719238,-3.0699615,9.141052
0.25675964,-3.108261,9.203293
0.24240112,-3.1130524,9.155411
0.23760986,-3.0891113,9.193726
0.3190155,-3.1034698,9.1458435
0.27592468,-3.1561432,9.217667
0.32859802,-3.0939026,9.241608
0.33816528,-3.1322021,9.27034
0.33337402,-3.0986938,9.241608
0.3477478,-3.0891113,9.313431
0.38604736,-3.0939026,9.255966
0.3477478,-3.060379,9.30864
0.3764801,-3.1513672,9.30864
0.36210632,-3.0507965,9.2846985
0.37168884,-3.0220795,9.25119
0.42915344,-3.0460205,9.246399
0.38604736,-3.0268555,9.255966
0.3477478,-2.9933472,9.222458
0.34295654,-2.988556,9.1458435
0.34295654,-3.0029144,9.09317
0.33337402,-2.9598236,8.997391
0.24719238,-3.012497,9.035706
0.24240112,-2.9981384,9.069229000000002
0.21846008,-2.9646149,9.164993
0.18493652,-2.9837646,9.117111
0.13227844,-2.9741821,9.25119
0.16101074,-3.0220795,9.164993
0.17059326,-3.0316467,9.236816
0.17059326,-3.0651703,9.232025
0.12271118,-3.0555878,9.232025
0.18972778,-3.0316467,9.227234
0.15621948,-3.08432,9.227234
0.15621948,-3.0795288,9.217667
0.11791992,-3.122635,9.083588
0.17059326,-3.1130524,9.078796
0.15142822,-3.170517,9.074005
0.15142822,-3.2136078,9.212875
0.14665222,-3.1992493,9.198517
0.12271118,-3.2231903,9.217667
0.09397888,-3.2710724,9.227234
0.07481384,-3.2758636,9.208084
0.055664063,-3.2566986,9.222458
0.07481384,-3.2902222,9.217667
0.0460968,-3.2806396,9.217667
0.026931763,-3.285431,9.260757000000002
0.041305542,-3.3381042,9.30864
0.06524658,-3.3189545,9.313431
0.12748718,-3.309372,9.265549
0.10354614,-3.3141632,9.294281
0.16101074,-3.3428955,9.232025
0.2040863,-3.4051514,9.208084
0.24240112,-3.4243011,9.179352
0.24240112,-3.3476868,9.179352
0.26634216,-3.40036,9.232025
0.2902832,-3.3859863,9.1458435
0.30464172,-3.3141632,9.246399
0.29507446,-3.3189545,9.136261
0.27113342,-3.2758636,9.227234
0.3190155,-3.2327576,9.217667
0.27113342,-3.24234,9.27034
0.34295654,-3.2088165,9.294281
0.30943298,-3.2088165,9.380463
0.35731506,-3.1369934,9.346954
0.36689758,-3.1800842,9.28949
0.36689758,-3.194458,9.2846985
0.3477478,-3.170517,9.246399
0.35731506,-3.1800842,9.198517
0.36689758,-3.1753082,9.188934
0.35731506,-3.1753082,9.208084
0.3812561,-3.1800842,9.126678
0.32859802,-3.1800842,9.164993
0.2902832,-3.1561432,9.141052
0.30943298,-3.1513672,9.160202000000002
0.25198364,-3.1609344,9.078796
0.28549194,-3.0795288,9.217667
0.24240112,-3.1034698,9.193726
0.24719238,-3.146576,9.227234
0.22802734,-3.1130524,9.169785
0.165802,-3.08432,9.160202000000002
0.25675964,-3.122635,9.155411
0.24719238,-3.0795288,9.188934
0.30943298,-3.1417847,9.222458
0.1993103,-3.0891113,9.193726
0.26634216,-3.1369934,9.27034
0.1993103,-3.1896667,9.193726
0.2040863,-3.2040253,9.188934
0.2040863,-3.2806396,9.337372
0.18014526,-3.3476868,9.313431
0.11312866,-3.3907776,9.413986
0.060455322,-3.40036,9.375687
0.09875488,-3.41951,9.303848
0.11791992,-3.3812103,9.28949
0.08439636,-3.333313,9.375687
0.09397888,-3.3189545,9.184143
0.09397888,-3.2758636,9.078796
0.1370697,-3.2662811,9.13147
0.07481384,-3.3141632,9.1506195
0.13227844,-3.2375488,9.169785
0.0796051,-3.2614899,9.236816
0.1370697,-3.1657257,9.169785
0.1083374,-3.1609344,9.193726
0.06524658,-3.1130524,9.107529
0.11791992,-3.0986938,8.997391
0.0796051,-3.1609344,8.997391
0.07003784,-3.108261,8.968674
0.07481384,-3.1417847,9.011765
0.11791992,-3.1322021,9.011765
0.09875488,-3.1609344,9.088379
0.11312866,-3.122635,9.11232
0.16101074,-3.1848755,9.078796
0.1370697,-3.1753082,9.1506195
0.2040863,-3.1417847,9.09317
0.18493652,-3.2136078,9.078796
0.21366882,-3.1657257,9.097946
0.24719238,-3.146576,9.121902
0.25198364,-3.0795288,8.987823499999998
0.2615509,-3.060379,8.987823499999998
0.27592468,-3.036438,9.006973
0.30464172,-3.0891113,8.930359
0.31422424,-3.0699615,8.983031999999998
0.38604736,-3.108261,9.050064
0.36689758,-3.1513672,9.1458435
0.39562988,-3.1848755,9.203293
0.3812561,-3.2327576,9.313431
0.36210632,-3.24234,9.318222
0.36689758,-3.2806396,9.399628
0.3764801,-3.3476868,9.524124
0.35731506,-3.3620453,9.50975
0.31422424,-3.40036,9.437927
0.26634216,-3.3859863,9.4427185
0.2040863,-3.3859863,9.476242
0.19451904,-3.3859863,9.356522
0.13227844,-3.3668365,9.342163
0.13227844,-3.3141632,9.313431
0.09397888,-3.3141632,9.279907
0.060455322,-3.285431,9.222458
0.0796051,-3.2136078,9.265549
0.11312866,-3.2375488,9.236816
0.165802,-3.2566986,9.198517
0.165802,-3.285431,9.2846985
0.22325134,-3.2040253,9.1458435
0.2328186,-3.2662811,9.1506195
0.3190155,-3.1369934,9.126678
0.26634216,-3.1561432,9.088379
0.24719238,-3.1657257,9.179352
0.20887756,-3.1657257,9.212875
0.18014526,-3.1417847,9.246399
0.17536926,-3.1130524,9.212875
0.16101074,-3.1130524,9.30864
0.06524658,-3.1034698,9.260757000000002
0.060455322,-3.1657257,9.423569
0.08439636,-3.1034698,9.409195
0.031723022,-3.0986938,9.327805
-0.011367798,-3.0172882,9.279907
-0.006576538,-2.9789734,9.078796
0.0029907227,-2.9119415,8.963882
0.031723022,-2.9263,8.939941
0.08439636,-2.9741821,9.074005
0.09875488,-3.108261,9.212875
0.09397888,-3.0795288,9.212875
0.07003784,-2.9837646,9.083588
0.11312866,-2.9789734,9.184143
0.18014526,-3.0029144,9.318222
0.14665222,-3.0220795,9.241608
0.18493652,-3.0316467,9.27034
0.10354614,-3.0316467,9.2846985
0.16101074,-3.0747528,9.30864
0.17059326,-3.0268555,9.294281
0.15142822,-3.108261,9.30864
0.20887756,-3.012497,9.375687
0.16101074,-3.036438,9.356522
0.18972778,-3.1417847,9.303848
0.21366882,-3.0891113,9.409195
0.2040863,-3.1130524,9.366104000000002
0.1370697,-3.1034698,9.212875
0.14665222,-3.2136078,9.275131
0.16101074,-3.1417847,9.11232
0.17059326,-3.170517,9.064438
0.22325134,-3.2231903,9.255966
0.18972778,-3.3141632,9.332581
0.16101074,-3.146576,9.074005
0.18972778,-3.0939026,8.997391
0.16101074,-3.1369934,9.126678
0.21846008,-3.2375488,9.30864
0.21846008,-3.3141632,9.385254
0.2040863,-3.1513672,9.418777
0.165802,-3.0939026,9.208084
0.20887756,-3.0220795,9.059647
0.21366882,-3.012497,9.232025
0.2615509,-3.122635,9.380463
0.3190155,-3.127411,9.413986
0.32380676,-3.1992493,9.538483
0.30943298,-3.1178436,9.538483
0.32859802,-2.9933472,9.279907
0.28549194,-3.012497,9.294281
0.30464172,-2.9598236,9.375687
0.28549194,-3.012497,9.423569
0.23760986,-2.9837646,9.452301
0.24240112,-2.8880005,9.208084
0.26634216,-2.739563,8.9543
0.27592468,-2.7922363,8.920776
0.24719238,-2.9071503,9.097946
0.25675964,-2.9981384,9.193726
0.25675964,-2.9789734,9.198517
0.2615509,-2.8688507,9.059647
0.29986572,-2.9598236,9.069229000000002
0.26634216,-3.0412292,9.193726
0.22802734,-3.0268555,9.227234
0.18972778,-2.988556,9.107529
0.19451904,-2.988556,9.136261
0.2328186,-3.0077057,9.174561
0.15621948,-2.9646149,9.188934
0.10354614,-2.9598236,9.174561
0.18014526,-2.9933472,9.241608
0.17536926,-3.0316467,9.25119
0.22802734,-2.9741821,9.323013
0.2328186,-3.0220795,9.279907
0.27113342,-2.988556,9.346954
0.30943298,-2.9837646,9.208084
0.36210632,-3.0316467,9.222458
0.32380676,-3.0029144,9.155411
0.29986572,-2.9933472,9.164993
0.32859802,-2.9789734,9.212875
0.34295654,-3.012497,9.193726
0.28549194,-3.0268555,9.164993
0.28070068,-3.0077057,9.279907
0.28070068,-3.0172882,9.27034
0.25198364,-3.0077057,9.25119
0.25675964,-3.036438,9.279907
0.2040863,-3.0939026,9.356522
0.2040863,-3.08432,9.313431
0.25198364,-3.0699615,9.30864
0.19451904,-3.0077057,9.208084
0.16101074,-3.0651703,9.299072
0.1370697,-3.2614899,9.390045
0.17059326,-3.2566986,9.366104000000002
0.19451904,-3.2136078,9.30864
0.18972778,-3.1178436,9.241608
0.18493652,-3.2327576,9.275131
0.23760986,-3.2327576,9.217667
0.24719238,-3.218399,9.2846985
0.24240112,-3.2231903,9.294281
0.17059326,-3.2136078,9.413986
0.18014526,-3.1848755,9.342163
0.1993103,-3.194458,9.332581
0.20887756,-3.170517,9.337372
0.21366882,-3.218399,9.323013
0.21846008,-3.2327576,9.265549
0.24240112,-3.2758636,9.2846985
0.24719238,-3.2902222,9.28949
0.30943298,-3.2519226,9.193726
0.29507446,-3.2327576,9.155411
0.27113342,-3.2902222,9.040497
0.32380676,-3.1848755,9.054855
0.29986572,-3.1753082,8.983031999999998
0.27592468,-3.122635,9.011765
0.26634216,-3.0939026,9.002181999999998
0.25675964,-3.127411,9.064438
0.24240112,-3.1992493,9.174561
0.24719238,-3.146576,9.2846985
0.24240112,-3.1800842,9.356522
0.22802734,-3.146576,9.399628
0.25675964,-3.0316467,9.409195
0.18972778,-2.9598236,9.265549
0.22802734,-2.878418,9.198517
0.18014526,-2.9119415,9.11232
0.18493652,-2.8927917,9.203293
0.22325134,-2.9694061,9.342163
0.1993103,-3.0268555,9.380463
0.28549194,-3.127411,9.437927
0.2615509,-3.194458,9.552856
0.22802734,-3.1800842,9.418777
0.2615509,-3.1561432,9.318222
0.26634216,-3.1896667,9.222458
0.27592468,-3.1417847,9.198517
0.24240112,-3.2136078,9.260757000000002
0.24719238,-3.2471313,9.294281
0.2902832,-3.2519226,9.332581
0.24719238,-3.2136078,9.313431
0.22802734,-3.1322021,9.198517
0.2040863,-3.0795288,9.141052
0.18014526,-3.1753082,9.164993
0.1993103,-3.1753082,9.174561
0.15621948,-3.1657257,9.078796
0.18014526,-3.1657257,9.050064
0.19451904,-3.1896667,9.117111
0.15142822,-3.194458,9.164993
0.15621948,-3.1657257,9.222458
0.165802,-3.2327576,9.318222
0.18972778,-3.2471313,9.337372
0.11312866,-3.24234,9.346954
0.15621948,-3.2710724,9.418777
0.16101074,-3.2950134,9.528915
0.12748718,-3.2710724,9.390045
0.18014526,-3.352478,9.504974
0.08439636,-3.3381042,9.471451
0.165802,-3.3189545,9.4427185
0.20887756,-3.3476868,9.28949
0.18972778,-3.2998047,9.299072
0.1083374,-3.2231903,9.236816
0.16101074,-3.2327576,9.241608
0.14186096,-3.2136078,9.208084
0.17536926,-3.2136078,9.174561
0.13227844,-3.1561432,9.265549
0.17536926,-3.127411,9.208084
0.15621948,-3.0747528,9.188934
0.17536926,-3.060379,9.164993
0.23760986,-3.0268555,9.141052
0.27592468,-3.012497,9.078796
0.28549194,-2.9550323,9.030914
0.2902832,-2.9263,9.078796
0.32859802,-2.9215088,9.097946
0.33816528,-2.9837646,9.184143
0.3812561,-2.902359,9.1506195
0.32380676,-2.945465,9.193726
0.33816528,-2.9215088,9.203293
0.32859802,-2.8832092,9.021332
0.36210632,-2.8688507,8.963882
0.33816528,-2.8688507,9.121902
0.29507446,-2.9263,9.265549
0.28070068,-2.9550323,9.279907
0.3190155,-2.945465,9.366104000000002
0.27592468,-2.9119415,9.356522
0.28070068,-2.878418,9.279907
0.26634216,-2.8161774,9.141052
0.33337402,-2.830536,9.25119
0.3190155,-2.8736267,9.394836
0.30943298,-2.8688507,9.404419
0.3190155,-2.9358826,9.413986
0.38604736,-2.8975677,9.323013
0.4099884,-2.8448944,9.246399
0.42436218,-2.902359,9.313431
0.4099884,-3.0077057,9.380463
0.44351196,-3.0699615,9.399628
0.48660278,-3.127411,9.380463
0.48660278,-3.08432,9.232025
0.5057678,-3.0555878,9.155411
0.47703552,-3.1034698,9.2846985
0.5392761,-3.2040253,9.361313
0.52970886,-3.2519226,9.409195
0.48660278,-3.1896667,9.42836
0.44830322,-3.1609344,9.232025
0.44351196,-3.146576,9.136261
0.4387207,-3.2040253,9.27034
0.467453,-3.285431,9.184143
0.37168884,-3.2088165,9.25119
0.26634216,-3.2040253,9.174561
0.32380676,-3.1178436,9.102737
0.20887756,-3.1322021,9.174561
0.18972778,-3.1848755,9.313431
0.14665222,-3.1657257,9.409195
0.18014526,-3.127411,9.418777
0.18014526,-2.9263,9.208084
0.19451904,-2.9981384,9.236816
0.20887756,-3.08432,9.303848
0.25198364,-3.194458,9.332581
0.25198364,-3.1896667,9.299072
0.23760986,-3.08432,9.13147
0.32859802,-3.146576,9.117111
0.29986572,-3.2040253,9.332581
0.37168884,-3.2758636,9.337372
0.3477478,-3.2710724,9.303848
0.38604736,-3.1513672,9.078796
0.3477478,-3.0986938,9.059647
0.36210632,-3.1800842,9.174561
0.35253906,-3.2040253,9.232025
0.28070068,-3.0986938,9.236816
0.3190155,-3.0460205,9.059647
0.25198364,-3.0507965,9.026123
0.28549194,-3.1130524,9.208084
0.28549194,-3.0795288,9.28949
0.25198364,-3.0891113,9.390045
0.30464172,-3.0077057,9.241608
0.26634216,-2.9933472,9.040497
0.30943298,-2.9646149,9.160202000000002
0.30943298,-3.0460205,9.294281
0.3190155,-3.0172882,9.370895
0.28070068,-3.0220795,9.327805
0.31422424,-2.902359,9.179352
0.34295654,-2.9167328,9.1506195
0.3477478,-2.9550323,9.313431
0.36210632,-2.988556,9.356522
0.36689758,-2.950241,9.390045
0.41477966,-2.8401184,9.241608
0.33816528,-2.811386,9.25119
0.35731506,-2.9406738,9.370895
0.37168884,-2.9646149,9.4427185
0.36210632,-2.902359,9.351746
0.37168884,-2.7730713,9.169785
0.467453,-2.8448944,9.222458
0.40042114,-2.9071503,9.356522
0.44830322,-2.9071503,9.323013
0.45787048,-2.8257446,9.203293
0.41477966,-2.9119415,9.212875
0.43392944,-2.8975677,9.27034
0.45787048,-2.9263,9.299072
0.44830322,-2.9310913,9.28949
0.44351196,-2.950241,9.265549
0.40042114,-2.8496857,9.212875
0.4387207,-2.8880005,9.227234
0.43392944,-2.9263,9.2846985
0.44351196,-2.811386,9.366104000000002
0.4052124,-2.8209534,9.380463
0.42436218,-2.8496857,9.255966
0.39083862,-2.8257446,9.361313
0.35253906,-2.763504,9.332581
0.4052124,-2.8448944,9.299072
0.4052124,-2.8018036,9.222458
0.44830322,-2.7778625,9.208084
0.4052124,-2.7778625,9.255966
0.39562988,-2.7970123,9.241608
0.39562988,-2.8448944,9.2846985
0.4387207,-2.8401184,9.327805
0.45309448,-2.902359,9.332581
0.40042114,-2.945465,9.423569
0.3812561,-2.8927917,9.323013
0.36210632,-2.9071503,9.255966
0.36210632,-3.0172882,9.236816
0.40042114,-2.9694061,9.332581
0.3812561,-3.0412292,9.313431
0.39562988,-3.1178436,9.265549
0.39083862,-3.0316467,9.232025
0.3764801,-3.1130524,9.279907
0.45787048,-3.08432,9.318222
0.4052124,-3.146576,9.351746
0.3764801,-3.0939026,9.332581
0.3477478,-3.0986938,9.342163
0.39083862,-3.122635,9.294281
0.37168884,-3.08432,9.366104000000002
0.36689758,-3.0699615,9.327805
0.37168884,-3.0077057,9.303848
0.3477478,-2.9933472,9.332581
0.33337402,-2.9933472,9.418777
0.3477478,-3.0172882,9.413986
0.31422424,-3.0460205,9.418777
0.3190155,-3.0268555,9.413986
0.29986572,-2.9933472,9.361313
0.29507446,-3.0412292,9.30864
0.35731506,-2.988556,9.275131
0.3190155,-2.988556,9.208084
0.34295654,-2.9694061,9.217667
0.37168884,-2.9741821,9.260757000000002
0.33337402,-2.9550323,9.260757000000002
0.33337402,-2.9550323,9.212875
0.32380676,-2.9933472,9.222458
0.31422424,-2.9598236,9.203293
0.35253906,-2.9215088,9.232025
0.34295654,-2.902359,9.174561
0.3190155,-2.8592682,9.188934
0.33337402,-2.854477,9.169785
0.32859802,-2.8640594,9.169785
0.29986572,-2.8736267,9.217667
0.32380676,-2.8448944,9.136261
0.29986572,-2.8448944,9.275131
0.29507446,-2.854477,9.30864
0.28070068,-2.8257446,9.294281
0.33816528,-2.8640594,9.327805
0.29986572,-2.8161774,9.337372
0.33337402,-2.8880005,9.366104000000002
0.3190155,-2.8448944,9.385254
0.22325134,-2.902359,9.323013
0.21846008,-2.950241,9.356522
0.25198364,-2.9550323,9.394836
0.21366882,-2.9550323,9.413986
0.1993103,-3.012497,9.385254
0.21846008,-3.0507965,9.332581
0.2328186,-3.0220795,9.28949
0.27113342,-3.0412292,9.361313
0.23760986,-3.0412292,9.342163
0.22325134,-3.0986938,9.346954
0.22802734,-3.0699615,9.337372
0.18014526,-3.1369934,9.327805
0.26634216,-3.1848755,9.380463
0.20887756,-3.146576,9.356522
0.2040863,-3.1034698,9.351746
0.18972778,-3.1178436,9.351746
0.20887756,-3.1561432,9.323013
0.22802734,-3.1513672,9.323013
0.2040863,-3.1609344,9.25119
0.17059326,-3.1657257,9.351746
0.22325134,-3.1130524,9.361313
0.21846008,-3.1034698,9.255966
0.2040863,-3.0747528,9.227234
0.2328186,-3.0268555,9.232025
0.21366882,-3.0316467,9.107529
0.18972778,-2.945465,9.136261
0.22802734,-2.9837646,9.193726
0.2040863,-2.9837646,9.136261
0.18014526,-2.9550323,9.126678
0.18014526,-2.9406738,9.136261
0.11312866,-2.854477,9.107529
0.165802,-2.8688507,9.227234
0.15621948,-2.8688507,9.155411
0.165802,-2.8496857,9.246399
0.15142822,-2.7922363,9.208084
0.15142822,-2.76828,9.246399
0.041305542,-2.8161774,9.217667
0.13227844,-2.7970123,9.337372
0.0796051,-2.7730713,9.361313
0.13227844,-2.787445,9.390045
0.14665222,-2.787445,9.303848
0.17536926,-2.7730713,9.28949
0.19451904,-2.8257446,9.246399
0.17536926,-2.8353271,9.323013
0.2040863,-2.8257446,9.385254
0.20887756,-2.9406738,9.409195
0.15621948,-2.854477,9.481033
0.18493652,-2.8401184,9.471451
0.165802,-2.902359,9.481033
0.15142822,-2.902359,9.433136
0.24240112,-2.8832092,9.299072
0.1993103,-2.945465,9.409195
0.24719238,-2.8736267,9.327805
0.2328186,-2.9263,9.30864
0.2328186,-2.9406738,9.232025
0.2328186,-2.9598236,9.208084
0.30464172,-2.9646149,9.2846985
0.2328186,-3.0220795,9.25119
0.25198364,-2.9789734,9.203293
0.1993103,-3.0412292,9.227234
0.17536926,-2.9358826,9.188934
0.18493652,-2.9406738,9.184143
0.14665222,-2.8640594,9.102737
0.13227844,-2.8496857,9.184143
0.0796051,-2.8018036,9.255966
0.041305542,-2.7730713,9.241608
0.041305542,-2.787445,9.337372
-0.0018005371,-2.7587128,9.212875
0.08439636,-2.7251892,9.279907
0.09397888,-2.7826538,9.28949
0.08918761999999998,-2.739563,9.303848
0.16101074,-2.739563,9.279907
0.1370697,-2.7730713,9.28949
0.1370697,-2.8257446,9.30864
0.1370697,-2.9119415,9.294281
0.18014526,-2.9358826,9.279907
0.1083374,-3.0316467,9.413986
0.21366882,-3.012497,9.30864
0.17536926,-3.0699615,9.255966
0.2328186,-3.1178436,9.361313
0.14665222,-3.1657257,9.246399
0.20887756,-3.1369934,9.203293
0.2040863,-3.2471313,9.265549
0.21366882,-3.2279816,9.179352
0.17059326,-3.1992493,9.169785
0.1993103,-3.170517,9.021332
0.17059326,-3.0939026,8.882476999999998
0.18972778,-3.08432,8.834595
0.14665222,-3.036438,8.781921
0.12748718,-2.9789734,8.676574999999998
0.09875488,-2.9310913,8.652634
0.0796051,-2.8832092,8.753189
-0.020950317,-2.8688507,8.786713
-0.035308838,-2.8880005,8.963882
-0.12150574,-2.9358826,9.088379
-0.16459656,-2.9550323,9.212875
-0.2460022,-2.9550323,9.413986
-0.25558472,-3.0029144,9.46666
-0.31303406,-3.060379,9.658203
-0.34176636,-3.0986938,9.768326
-0.40881348,-3.1513672,9.753967
-0.43754578,-3.1369934,9.787491
-0.38964844,-3.1561432,9.730026
-0.35614014,-3.1992493,9.706085
-0.38008118,-3.2950134,9.820999
-0.31782532,-3.3620453,9.730026
-0.25558472,-3.4099274,9.619888
-0.17897034,-3.5248566,9.763535
-0.13586426,-3.6349945,9.696503
-0.0975647,-3.649353,9.792267
-0.030517578,-3.6924438,9.820999
-0.016159058,-3.740326,9.801849
0.0796051,-3.697235,9.7348175
0.2040863,-3.6780853,9.682144
0.21366882,-3.6445618,9.605530000000002
0.29507446,-3.601471,9.528915
0.3477478,-3.5440063,9.390045
0.47703552,-3.5057068,9.208084
0.52012634,-3.3859863,9.1458435
0.47703552,-3.3668365,9.1458435
0.48660278,-3.309372,9.227234
0.4387207,-3.2998047,9.2846985
0.33337402,-3.3716278,9.342163
0.24719238,-3.328537,9.394836
0.14186096,-3.3237457,9.519333
0.060455322,-3.3428955,9.495392
-0.049682617,-3.304596,9.390045
-0.13586426,-3.304596,9.380463
-0.20770264,-3.122635,9.1458435
-0.22206116,-3.1753082,9.078796
-0.2747345,-2.9933472,9.026123
-0.21247864,-2.9310913,9.026123
-0.0975647,-2.945465,9.059647
-0.049682617,-2.950241,9.088379
0.050872803,-2.8448944,8.973449999999998
0.09875488,-2.6773071,8.6957245
0.2040863,-2.5288696,8.446732
0.3190155,-2.4570465,8.470672999999998
0.4099884,-2.3852081,8.269562
0.45787048,-2.2319794,7.9439545
0.47224426,-2.2032623,7.805084
0.48660278,-2.150589,7.9631042
0.55844116,-2.0691833,7.939162999999998
0.44351196,-1.9159546,7.958313
0.42436218,-1.8441315,8.034926999999998
0.36210632,-1.8489075,8.566437
0.2902832,-1.8728485,8.949509
0.18972778,-1.7914581,9.030914
0.10354614,-1.7052612,9.208084
-0.035308838,-1.7866669,9.648621
-0.15023803999999996,-1.7914581,9.931137
-0.23164368,-1.8393402,10.16098
-0.3657074,-1.9111633,10.170563
-0.40402222,-2.0356598,10.333359
-0.35134888,-2.1697388,10.386032
-0.38008118,-2.33255,10.424347
-0.3609314,-2.4857788,10.405182000000002
-0.26036072,-2.6390076,10.414764000000002
-0.20770264,-2.8401184,10.405182000000002
-0.0688324,-3.0220795,10.376465
-0.07362366,-3.1992493,10.376465
0.041305542,-3.3716278,10.314209000000002
0.09397888,-3.5104828,10.218445
0.1083374,-3.5727386,10.156189
0.24240112,-3.716385,10.084366
0.16101074,-3.73555,9.868881
0.22325134,-3.783432,9.768326
0.2902832,-3.8361053,9.701294
0.25198364,-3.9079285,9.528915
0.23760986,-3.917511,9.351746
0.32859802,-3.9318695,9.361313
0.27113342,-3.874405,9.136261
0.20887756,-3.922287,9.126678
0.22802734,-3.917511,8.987823499999998
0.18972778,-3.8504639,8.887268
0.15621948,-3.8121643,8.858536
0.07003784,-3.8265228,8.839385999999998
0.022140503,-3.697235,8.734039
0.026931763,-3.6876678,8.767547999999998
-0.13108826,-3.491333,8.599959999999998
-0.09277344,-3.4721832,8.63826
-0.12150574,-3.40036,8.63826
-0.17417908,-3.1992493,8.446732
-0.21247864,-3.3141632,8.710098
-0.22685242,-3.1609344,8.748398
-0.2460022,-3.0747528,8.738830999999998
-0.2747345,-2.945465,8.647842
-0.32261658,-2.8640594,8.590377999999998
-0.23164368,-2.787445,8.662216
-0.25079346,-2.8257446,8.820221
-0.20291138,-2.7826538,8.9543
-0.17897034,-2.8065948,9.002181999999998
-0.11192322,-2.7347717,9.136261
-0.126297,-2.7299805,9.1506195
-0.040100098,-2.6916656,9.1458435
-0.011367798,-2.6868896,9.370895
0.15142822,-2.6773071,9.294281
0.18493652,-2.5911102,9.275131
0.18014526,-2.5144958,9.107529
0.2328186,-2.4666138,8.868102999999998
0.29986572,-2.3947906,8.901626999999998
0.32380676,-2.4091644,9.078796
0.36689758,-2.3516998,9.126678
0.36689758,-2.337326,9.160202000000002
0.3477478,-2.2176208,9.016556
0.3477478,-2.17453,9.088379
0.27113342,-2.198471,9.25119
0.23760986,-2.2846527,9.433136
0.21366882,-2.222412,9.423569
0.12271118,-2.2463531,9.562424
0.022140503,-2.2990265,9.7348175
-0.040100098,-2.2367706,9.907196
-0.12150574,-2.289444,10.046051
-0.29388428,-2.3038177,10.127457
-0.38487244,-2.289444,10.3285675
-0.5237274,-2.3085938,10.290268
-0.54766846,-2.3229675,10.204071
-0.581192,-2.3469086,10.189713
-0.60513306,-2.4043732,10.079575
-0.59555054,-2.4139404,9.964661
-0.63386536,-2.533661,9.993378
-0.56681824,-2.6150513,9.811432000000002
-0.5285187,-2.6246338,9.806641
-0.5237274,-2.7778625,9.749176
-0.44711304,-2.9215088,9.591156
-0.37528992,-2.9550323,9.68692
-0.35614014,-3.0891113,9.581589
-0.32740784,-3.1417847,9.524124
-0.28431702,-3.1753082,9.461868
-0.26515198,-3.24234,9.385254
-0.23641968,-3.309372,9.342163
-0.20770264,-3.3955688,9.30864
-0.13586426,-3.4482422,9.222458
-0.07841492,-3.534439,9.299072
0.0029907227,-3.5535889,9.188934
0.012573242,-3.5870972,9.107529
0.0077819824,-3.601471,9.059647
0.10354614,-3.6349945,8.9543
0.15142822,-3.6589355,8.892058999999998
0.17059326,-3.6302032,8.719666
0.18493652,-3.6685028,8.690932999999998
0.2040863,-3.625412,8.657425
0.2328186,-3.5296478,8.566437
0.1993103,-3.5200653,8.609543
0.18493652,-3.4386597,8.647842
0.23760986,-3.357254,8.710098
0.165802,-3.3668365,8.676574999999998
0.165802,-3.2950134,8.781921
0.14186096,-3.2279816,8.916
0.15142822,-3.1848755,8.987823499999998
0.14186096,-3.1369934,9.13147
0.036514282,-3.1178436,9.217667
0.0796051,-3.0172882,9.433136
0.017364502,-2.9167328,9.500183
-0.011367798,-2.854477,9.648621
-0.035308838,-2.8640594,9.801849
-0.10235596,-2.8880005,9.801849
-0.044891357,-2.6916656,9.792267
-0.0688324,-2.6677246,9.749176
-0.08319092,-2.5528107,9.5767975
-0.0975647,-2.6342163,9.461868
-0.12150574,-2.5288696,9.404419
-0.11671448,-2.519287,9.198517
-0.14065552,-2.5528107,9.346954
-0.14544678,-2.6437836,9.380463
-0.13586426,-2.6868896,9.351746
-0.12150574,-2.7251892,9.495392
-0.059249878,-2.7922363,9.485809
-0.09277344,-2.8018036,9.634262
-0.11671448,-2.8209534,9.66777
-0.06404114,-2.8065948,9.682144
-0.07841492,-2.8065948,9.753967
-0.006576538,-2.8209534,9.725235
-0.044891357,-2.8353271,9.701294
0.0029907227,-2.7491302,9.730026
0.036514282,-2.8448944,9.691711
0.07481384,-2.8927917,9.730026
0.050872803,-2.9358826,9.696503
0.041305542,-2.9215088,9.643829
0.022140503,-2.9358826,9.504974
0.036514282,-2.9119415,9.366104000000002
-0.040100098,-2.8401184,9.327805
-0.09277344,-2.878418,9.303848
-0.030517578,-2.878418,9.136261
-0.08798218,-2.8832092,9.074005
-0.08319092,-2.8880005,9.006973
-0.0975647,-2.9071503,8.93515
-0.10235596,-2.8688507,8.829803
-0.15023803999999996,-2.8832092,8.901626999999998
-0.13108826,-2.8688507,8.777129999999998
-0.11192322,-2.8880005,8.791489
-0.15023803999999996,-2.9071503,8.820221
-0.13586426,-2.9119415,8.738830999999998
-0.0688324,-2.9358826,8.781921
-0.07362366,-2.9215088,8.844162
-0.0688324,-2.9263,8.839385999999998
-0.030517578,-2.8880005,8.872894
0.012573242,-2.9215088,8.939941
0.060455322,-2.950241,9.050064
0.1370697,-2.9406738,9.102737
0.12271118,-2.9550323,9.184143
0.1993103,-2.9837646,9.25119
0.2615509,-2.9550323,9.351746
0.32380676,-2.9981384,9.42836
0.3812561,-3.0268555,9.418777
0.3764801,-3.0029144,9.481033
0.47703552,-2.9646149,9.452301
0.52012634,-2.9550323,9.404419
0.5057678,-2.9741821,9.342163
0.52970886,-2.8640594,9.342163
0.52970886,-2.8448944,9.25119
0.5680084,-2.8257446,9.1458435
