accX,accY,accZ
0.14303589,-1.6088867,9.366699
0.08560181,-1.637619,9.347549
0.13348389,-1.6663513,9.400223
0.14303589,-1.6950836,9.337967
0.047286987,-1.6950836,9.347549
0.07122803,-1.6663513,9.3714905
0.07122803,-1.6759338,9.285294
0.08081054999999998,-1.6998749,9.290085
0.07601929,-1.6663513,9.381073
0.09037781,-1.6280518,9.203888
0.042495728,-1.5993195,9.246994
0.032928467,-1.6184692,9.251785000000002
-0.010177612,-1.5466461,9.203888
0.056869507,-1.4365082,9.146439
-0.014968872,-1.3311615,9.132065
0.008987427,-1.2832794,9.17038
0.004196167,-1.1970825,9.160797
-0.0005950928,-1.1252594,9.045883
0.06643677,-1.0534363000000002,8.998001
0.004196167,-0.9959717,8.983627
0.09516907,-0.9193573,9.060242
0.12390137,-0.9576721,9.021942
0.10954285,-0.95288086,9.045883
0.13825989,-0.92414856,9.117706
0.14782715,-0.9672394,9.045883
0.14782715,-0.98161316,9.175171
0.13348389,-0.95288086,9.223053
0.09996033,-0.97203064,9.246994
0.12869263,-0.98161316,9.294876
0.07122803,-0.9959717,9.419373
0.004196167,-0.95288086,9.376282
0.013763428,-0.94329834,9.433731
0.018554688,-0.9337311,9.361908
-0.0005950928,-0.9624634,9.304459
0.013763428,-1.0007629,9.280502
0.018554688,-1.0294952,9.194321
0.07601929,-1.1779327,9.285294
0.12869263,-1.2497559,9.242203000000002
0.20050049,-1.2832794,9.314026
0.24838257,-1.3742676,9.3954315
0.2866974,-1.4891815,9.438522
0.2866974,-1.498764,9.491196
0.28190613,-1.5179138,9.548660000000002
0.29626465,-1.50354,9.534302
0.21487427,-1.4365082,9.682739
0.14782715,-1.3694763,9.6923065
0.11911011,-1.3790436,9.658798
0.08081054999999998,-1.3790436,9.596542
0.023345947,-1.364685,9.433731
0.023345947,-1.340744,9.467255
-0.019744873,-1.3742676,9.366699
-0.06762695000000002,-1.3790436,9.347549
-0.06762695000000002,-1.3886261,9.318817
-0.07720947,-1.450882,9.366699
-0.038909912,-1.5083313,9.352341
-0.08200073,-1.5705872,9.467255
-0.014968872,-1.5849457,9.433731
-0.034118652,-1.613678,9.424164
-0.034118652,-1.6041107,9.476837
-0.019744873,-1.5993195,9.481628
-0.019744873,-1.5562134,9.524719
-0.048477173,-1.5705872,9.601334
-0.043685913,-1.5514374,9.457687000000002
-0.07241820999999998,-1.498764,9.39064
-0.06285095,-1.4604492,9.266144
-0.15382385,-1.4460907,9.227844
-0.15382385,-1.4460907,9.184738
-0.21128845,-1.474823,9.17038
-0.24481201,-1.5179138,9.381073
-0.24481201,-1.5418549,9.40979
-0.20170593,-1.5322723,9.184738
-0.24002075,-1.6232605,9.366699
-0.18734741,-1.6711426,9.419373
-0.20170593,-1.6902924,9.452896
-0.14424133,-1.6902924,9.361908
-0.09635925,-1.6807251,9.443314
-0.1490326,-1.6519928,9.285294
-0.16819763,-1.6855011,9.563019
-0.07720947,-1.6711426,9.342758
-0.13467407,-1.5801544,9.543869
-0.12030029,-1.5562134,9.591751
-0.18734741,-1.5322723,9.491196
-0.1777649,-1.5274963,9.697098
-0.17297362999999996,-1.50354,9.644424
-0.12030029,-1.5370636,9.744980000000002
-0.21128845,-1.498764,9.472046
-0.09158325,-1.455658,9.524719
-0.12509155,-1.4269257,9.3954315
-0.07241820999999998,-1.4173584,9.314026
-0.058059692,-1.4317169,9.270935
0.008987427,-1.4029846,9.314026
-0.010177612,-1.4652405,9.290085
0.056869507,-1.4843903,9.21347
0.06643677,-1.479599,9.179947
0.023345947,-1.498764,9.132065
0.028137207,-1.498764,9.179947
0.032928467,-1.5514374,9.203888
0.047286987,-1.5274963,9.189529
0.008987427,-1.5274963,9.285294
-0.043685913,-1.5466461,9.290085
-0.048477173,-1.5322723,9.3954315
-0.06285095,-1.5849457,9.299667
-0.06285095,-1.5562134,9.179947
-0.024536133,-1.6280518,8.945328
-0.019744873,-1.6711426,8.725052
0.023345947,-1.7333832,8.67717
0.042495728,-1.7190247,8.710693
0.056869507,-1.7812805,8.792099
0.19570923,-1.7764893,8.921386999999998
0.21487427,-1.8004303,9.050659
0.29148865,-1.9009857,9.1033325
0.3010559,-1.8531036,9.304459
0.2866974,-1.8435211,9.400223
0.22444153,-1.7669067,9.405014
0.14782715,-1.6998749,9.342758
0.032928467,-1.5993195,9.285294
-0.034118652,-1.450882,9.314026
-0.10594177,-1.3694763,9.472046
-0.1490326,-1.2497559,9.591751
-0.15382385,-1.2258148,9.582184
-0.16819763,-1.1731415,9.644424
-0.18255615,-1.182724,9.548660000000002
-0.15382385,-1.1348419,9.462463
-0.09635925,-1.1156921,9.337967
-0.07720947,-1.1492004,9.3714905
-0.029327393,-1.1492004,9.309235
0.032928467,-1.1970825,9.304459
0.028137207,-1.2449799,9.428955
0.07122803,-1.3024292,9.424164
0.09516907,-1.4412994,9.548660000000002
0.09516907,-1.4317169,9.606125
0.042495728,-1.474823,9.606125
0.061645508,-1.4125671,9.572601
-0.014968872,-1.4317169,9.563019
-0.08679199,-1.3694763,9.56781
-0.10594177,-1.3215942,9.58696
-0.11552429,-1.2689209,9.610916
-0.18255615,-1.1683655,9.553452
-0.20170593,-1.1492004,9.577393
-0.21128845,-1.0917511,9.457687000000002
-0.15382385,-1.0677948,9.352341
-0.09158325,-1.0821686,9.361908
-0.048477173,-1.0103455,9.203888
0.032928467,-1.0151367,9.381073
0.08560181,-1.048645,9.290085
0.09037781,-1.0821686,9.452896
0.12869263,-1.0965271,9.323608
0.19570923,-1.1683655,9.462463
0.23402405,-1.2832794,9.3954315
0.22444153,-1.316803,9.467255
0.20529175,-1.3215942,9.452896
0.19570923,-1.3886261,9.443314
0.11431885000000003,-1.450882,9.457687000000002
0.18614197,-1.4221497,9.385849
0.07122803,-1.4125671,9.405014
0.061645508,-1.4412994,9.285294
0.042495728,-1.4700317,9.323608
0.008987427,-1.5562134,9.246994
0.06643677,-1.498764,9.127274
0.052078247,-1.498764,8.998001
0.08560181,-1.5801544,8.9405365
0.061645508,-1.637619,9.1033325
0.13348389,-1.6711426,8.998001
0.14303589,-1.6950836,9.050659
0.16697693,-1.7573395,9.189529
0.16697693,-1.8435211,9.223053
0.10475159,-1.8243713,9.246994
0.17176819,-1.8674622,9.347549
0.17176819,-1.8914032,9.352341
0.16697693,-1.8052216,9.433731
0.14303589,-1.8243713,9.357117
0.12869263,-1.8195801,9.294876
0.14303589,-1.8099976,9.424164
0.11431885000000003,-1.7381744,9.419373
0.08081054999999998,-1.7094421,9.495987
0.08560181,-1.6711426,9.577393
0.056869507,-1.613678,9.577393
0.032928467,-1.5993195,9.610916
0.042495728,-1.5610046,9.610916
0.008987427,-1.5227051,9.639633
-0.029327393,-1.5370636,9.486404
-0.053268433,-1.5370636,9.414581
-0.038909912,-1.5322723,9.419373
-0.043685913,-1.5322723,9.405014
-0.07720947,-1.5179138,9.366699
-0.058059692,-1.6041107,9.452896
-0.058059692,-1.5705872,9.376282
-0.019744873,-1.5514374,9.3954315
0.028137207,-1.5083313,9.414581
0.09037781,-1.4700317,9.400223
0.032928467,-1.3982086,9.314026
0.13825989,-1.3503113000000002,9.448105000000002
0.12390137,-1.3024292,9.366699
0.16220093,-1.3024292,9.385849
0.14782715,-1.2353973,9.203888
0.17655945,-1.2018738000000002,9.189529
0.16220093,-1.2114563,9.223053
0.12869263,-1.2976532,9.40979
0.13348389,-1.3024292,9.309235
0.12390137,-1.340744,9.414581
0.09996033,-1.4077759,9.491196
0.09516907,-1.364685,9.251785000000002
0.13348389,-1.3742676,9.242203000000002
0.14782715,-1.2736969,9.0985565
0.22444153,-1.2449799,8.993209999999998
0.29148865,-1.2976532,9.041092
0.34414673,-1.2545471,8.825606999999998
0.4207611,-1.3072205,8.969269
0.39204407,-1.3120117,9.045883
0.39204407,-1.3311615,9.045883
0.3872528,-1.364685,9.285294
0.38246155,-1.3982086,9.486404
0.34414673,-1.3886261,9.591751
0.3154297,-1.474823,9.658798
0.21487427,-1.5131226,9.630066
0.12869263,-1.5562134,9.778503
0.08081054999999998,-1.6041107,9.701889
-0.043685913,-1.6424103,9.697098
-0.06285095,-1.6041107,9.701889
-0.1490326,-1.6088867,9.5295105
-0.20649719,-1.637619,9.6923065
-0.22085571,-1.6711426,9.495987
-0.25917053,-1.5849457,9.548660000000002
-0.24481201,-1.5705872,9.539078000000002
-0.15861511,-1.5705872,9.491196
-0.1490326,-1.5514374,9.467255
-0.10115051000000001,-1.4843903,9.486404
-0.06285095,-1.455658,9.582184
0.037704468,-1.3838348,9.553452
0.028137207,-1.3455353,9.448105000000002
0.028137207,-1.2928619,9.428955
-0.0005950928,-1.2210236,9.385849
0.023345947,-1.2210236,9.299667
-0.053268433,-1.2210236,9.314026
-0.014968872,-1.316803,9.256561
-0.09158325,-1.3359528,9.208679
-0.07720947,-1.3598938,9.17038
-0.13467407,-1.3598938,9.1033325
-0.06285095,-1.455658,9.036301000000002
-0.11552429,-1.5083313,8.988419
-0.11073303,-1.4412994,9.05545
-0.08200073,-1.4652405,8.969269
-0.038909912,-1.5514374,8.964477999999998
-0.09635925,-1.5322723,9.01236
-0.029327393,-1.5897369,9.021942
-0.019744873,-1.5657959,8.9405365
-0.029327393,-1.6041107,8.916595
-0.06762695000000002,-1.6232605,8.935745
0.023345947,-1.6711426,8.907013
0.061645508,-1.6567688,8.930954
0.08560181,-1.6807251,8.964477999999998
0.042495728,-1.795639,9.0793915
0.09037781,-1.8483124,9.036301000000002
0.10475159,-1.8531036,9.045883
0.14303589,-1.8770447,9.069824
0.16697693,-1.8914032,9.2374115
0.10475159,-1.9345093,9.251785000000002
0.10954285,-1.9345093,9.275726
0.12390137,-1.9440765,9.376282
0.07601929,-1.9201355,9.361908
0.07601929,-1.9201355,9.457687000000002
0.09037781,-1.905777,9.438522
0.08560181,-1.8578949,9.385849
0.052078247,-1.8195801,9.433731
0.09996033,-1.8339539,9.476837
0.06643677,-1.8099976,9.515137
0.07601929,-1.7908478,9.553452
0.023345947,-1.7094421,9.582184
0.028137207,-1.7238159,9.620483
0.013763428,-1.637619,9.6635895
0.004196167,-1.6807251,9.625275
0.032928467,-1.6424103,9.615692
-0.0005950928,-1.6567688,9.548660000000002
-0.034118652,-1.6567688,9.539078000000002
-0.043685913,-1.6519928,9.543869
-0.08200073,-1.6711426,9.462463
-0.058059692,-1.6424103,9.519928
-0.053268433,-1.637619,9.433731
-0.07241820999999998,-1.5705872,9.448105000000002
-0.08200073,-1.613678,9.448105000000002
-0.048477173,-1.5945282,9.591751
-0.034118652,-1.5562134,9.505569
-0.09158325,-1.5705872,9.294876
-0.043685913,-1.6519928,9.318817
-0.11073303,-1.5849457,9.122498
-0.07720947,-1.613678,9.318817
-0.038909912,-1.6328278,9.065033
-0.010177612,-1.5897369,9.256561
-0.048477173,-1.637619,9.0985565
0.028137207,-1.6759338,9.285294
-0.014968872,-1.7094421,9.0793915
-0.024536133,-1.6855011,9.041092
-0.019744873,-1.7190247,9.069824
0.013763428,-1.6902924,9.007568
-0.0005950928,-1.7094421,9.0985565
-0.014968872,-1.7333832,8.964477999999998
-0.024536133,-1.7525482,9.088974
0.013763428,-1.7669067,9.021942
0.028137207,-1.7860565,9.017151
0.013763428,-1.7764893,9.160797
0.042495728,-1.747757,9.036301000000002
0.07122803,-1.8387299,9.227844
0.032928467,-1.8004303,9.060242
0.07122803,-1.7669067,9.23262
0.028137207,-1.7812805,9.2374115
0.013763428,-1.7764893,9.088974
0.042495728,-1.8147888,9.093765
0.013763428,-1.7525482,9.036301000000002
0.018554688,-1.8339539,9.199112
-0.014968872,-1.8099976,9.017151
-0.010177612,-1.795639,9.218262
-0.0005950928,-1.8243713,9.199112
0.018554688,-1.8674622,9.151230000000002
-0.034118652,-1.8435211,9.17038
-0.07241820999999998,-1.8099976,9.165588
-0.053268433,-1.8291626,9.318817
-0.014968872,-1.7573395,9.285294
-0.029327393,-1.7573395,9.467255
-0.06285095,-1.6950836,9.376282
-0.09158325,-1.7238159,9.457687000000002
-0.043685913,-1.6519928,9.40979
-0.06762695000000002,-1.5562134,9.419373
-0.09158325,-1.5514374,9.457687000000002
-0.053268433,-1.5274963,9.405014
-0.029327393,-1.5418549,9.414581
0.028137207,-1.4700317,9.405014
0.018554688,-1.479599,9.428955
0.042495728,-1.450882,9.400223
0.07122803,-1.450882,9.40979
0.037704468,-1.4843903,9.428955
0.052078247,-1.5179138,9.424164
0.09037781,-1.5562134,9.500778
0.004196167,-1.5418549,9.491196
0.042495728,-1.5610046,9.495987
-0.0053863525,-1.6232605,9.534302
0.032928467,-1.6041107,9.591751
-0.0005950928,-1.6088867,9.500778
-0.0005950928,-1.6280518,9.285294
0.032928467,-1.613678,9.242203000000002
-0.0005950928,-1.5897369,9.093765
0.032928467,-1.5897369,9.160797
0.023345947,-1.6041107,9.23262
0.06643677,-1.6280518,9.189529
0.12390137,-1.5849457,9.146439
0.09037781,-1.6088867,9.333176000000002
0.07601929,-1.6902924,9.361908
0.061645508,-1.7525482,9.462463
0.042495728,-1.7908478,9.428955
-0.0053863525,-1.795639,9.256561
0.018554688,-1.8483124,9.132065
-0.06762695000000002,-1.8291626,9.318817
-0.038909912,-1.8339539,9.519928
-0.10115051000000001,-1.8195801,9.6635895
-0.08679199,-1.7429657,9.697098
-0.014968872,-1.7238159,9.558243
-0.010177612,-1.6855011,9.558243
-0.0005950928,-1.6088867,9.352341
0.013763428,-1.5370636,9.251785000000002
0.032928467,-1.4412994,9.203888
0.056869507,-1.4365082,9.227844
-0.0053863525,-1.4700317,9.218262
0.004196167,-1.5801544,9.165588
0.061645508,-1.6807251,9.266144
0.023345947,-1.7621155,9.290085
0.008987427,-1.8483124,9.275726
0.008987427,-1.9153442,9.352341
-0.0005950928,-1.8770447,9.280502
-0.014968872,-1.9249268,9.347549
-0.034118652,-1.905777,9.285294
0.047286987,-1.9009857,9.266144
-0.038909912,-1.8243713,9.2374115
-0.019744873,-1.8147888,9.227844
-0.048477173,-1.8004303,9.294876
-0.034118652,-1.6950836,9.290085
-0.053268433,-1.6807251,9.266144
-0.014968872,-1.6567688,9.266144
-0.06762695000000002,-1.6567688,9.304459
-0.08200073,-1.6472015,9.309235
-0.07720947,-1.6328278,9.424164
-0.06285095,-1.7142334,9.3284
-0.07241820999999998,-1.6567688,9.357117
-0.07241820999999998,-1.637619,9.314026
-0.09635925,-1.6759338,9.323608
-0.08200073,-1.6088867,9.314026
-0.048477173,-1.6041107,9.510345
-0.06285095,-1.5753784,9.366699
-0.06285095,-1.5945282,9.495987
-0.08679199,-1.5945282,9.448105000000002
-0.06285095,-1.5562134,9.17038
-0.12988281,-1.5083313,9.39064
-0.0053863525,-1.5562134,9.108124
-0.06762695000000002,-1.5466461,9.290085
-0.034118652,-1.5705872,9.294876
-0.06285095,-1.6184692,9.199112
-0.024536133,-1.5801544,9.376282
-0.0053863525,-1.6567688,9.227844
-0.010177612,-1.7094421,9.405014
0.018554688,-1.6711426,9.462463
-0.0053863525,-1.6711426,9.2374115
0.028137207,-1.66156,9.534302
-0.024536133,-1.6328278,9.23262
0.028137207,-1.6424103,9.376282
-0.014968872,-1.6184692,9.462463
0.037704468,-1.5993195,9.400223
0.004196167,-1.5801544,9.452896
0.09996033,-1.6519928,9.218262
0.042495728,-1.637619,9.424164
0.037704468,-1.6567688,9.467255
0.08081054999999998,-1.6855011,9.361908
0.032928467,-1.7238159,9.400223
0.052078247,-1.6759338,9.17038
0.008987427,-1.7429657,9.309235
0.047286987,-1.7621155,9.175171
0.032928467,-1.6950836,9.290085
0.008987427,-1.7094421,9.333176000000002
0.018554688,-1.6998749,9.285294
-0.014968872,-1.7286072,9.495987
-0.038909912,-1.7381744,9.433731
-0.014968872,-1.771698,9.491196
-0.043685913,-1.771698,9.443314
-0.0005950928,-1.8339539,9.275726
-0.019744873,-1.7860565,9.400223
0.008987427,-1.8243713,9.314026
-0.0053863525,-1.8243713,9.385849
-0.014968872,-1.8004303,9.333176000000002
0.056869507,-1.7812805,9.0793915
0.004196167,-1.8147888,9.323608
0.018554688,-1.7525482,9.275726
0.06643677,-1.7764893,9.39064
0.052078247,-1.7525482,9.3284
0.052078247,-1.7525482,9.160797
0.037704468,-1.7046661,9.184738
0.052078247,-1.7381744,9.0793915
0.023345947,-1.7429657,9.218262
0.013763428,-1.7621155,9.246994
-0.0053863525,-1.7142334,9.21347
-0.048477173,-1.7333832,9.266144
0.008987427,-1.6998749,8.983627
-0.024536133,-1.7142334,9.151230000000002
-0.07241820999999998,-1.6567688,9.227844
-0.06285095,-1.6998749,9.084183
-0.07241820999999998,-1.7094421,9.280502
-0.034118652,-1.6807251,9.203888
-0.048477173,-1.6424103,9.414581
-0.048477173,-1.6519928,9.424164
-0.053268433,-1.6232605,9.242203000000002
-0.06762695000000002,-1.5945282,9.414581
-0.034118652,-1.66156,9.3714905
-0.014968872,-1.6232605,9.318817
-0.034118652,-1.6184692,9.385849
-0.034118652,-1.6041107,9.122498
-0.034118652,-1.6472015,9.457687000000002
-0.0005950928,-1.6088867,9.352341
-0.029327393,-1.5897369,9.227844
-0.024536133,-1.6232605,9.405014
0.004196167,-1.6232605,9.2374115
-0.010177612,-1.6041107,9.462463
0.004196167,-1.66156,9.218262
-0.034118652,-1.5801544,9.472046
-0.019744873,-1.5849457,9.333176000000002
-0.019744873,-1.5993195,9.333176000000002
-0.048477173,-1.6232605,9.448105000000002
0.018554688,-1.5849457,9.227844
-0.019744873,-1.6519928,9.361908
-0.029327393,-1.5993195,9.179947
-0.0053863525,-1.5322723,9.414581
0.008987427,-1.6280518,9.337967
0.08560181,-1.5993195,9.242203000000002
0.004196167,-1.6088867,9.433731
0.008987427,-1.6184692,9.175171
0.042495728,-1.6855011,9.347549
0.032928467,-1.613678,9.141647
0.023345947,-1.6184692,9.419373
0.028137207,-1.637619,9.270935
0.052078247,-1.637619,9.414581
0.047286987,-1.6184692,9.3714905
0.018554688,-1.613678,9.251785000000002
0.047286987,-1.6232605,9.39064
0.037704468,-1.6711426,9.156006
-0.014968872,-1.7190247,9.352341
0.008987427,-1.7238159,9.189529
-0.029327393,-1.6902924,9.457687000000002
0.028137207,-1.771698,9.199112
-0.014968872,-1.6902924,9.318817
0.042495728,-1.7764893,9.208679
0.018554688,-1.7190247,9.065033
-0.034118652,-1.7573395,9.246994
0.037704468,-1.7812805,8.969269
-0.014968872,-1.8195801,9.39064
-0.0005950928,-1.8291626,8.993209999999998
-0.014968872,-1.8722534,9.304459
-0.014968872,-1.9392853,9.017151
-0.0053863525,-1.9249268,9.285294
-0.034118652,-1.953659,9.146439
-0.014968872,-2.0063324,8.993209999999998
-0.10594177,-2.0158997,9.156006
0.018554688,-2.0111237,9.036301000000002
-0.014968872,-1.9632263,9.337967
0.013763428,-1.8770447,9.23262
0.008987427,-1.929718,9.400223
0.061645508,-1.8099976,9.261353
0.10954285,-1.7094421,9.366699
0.11431885000000003,-1.6424103,9.299667
0.08081054999999998,-1.5562134,9.285294
0.10954285,-1.5418549,9.433731
0.047286987,-1.5322723,9.285294
-0.0005950928,-1.5083313,9.3954315
0.013763428,-1.5466461,9.39064
-0.038909912,-1.5801544,9.337967
-0.029327393,-1.6280518,9.428955
-0.058059692,-1.7142334,9.39064
0.008987427,-1.7621155,9.448105000000002
0.032928467,-1.8291626,9.318817
-0.0005950928,-1.8052216,9.285294
0.004196167,-1.8195801,9.246994
0.018554688,-1.8531036,9.285294
0.042495728,-1.8195801,9.270935
0.023345947,-1.7190247,9.318817
0.023345947,-1.6280518,9.280502
0.004196167,-1.613678,9.179947
-0.029327393,-1.5466461,9.156006
0.013763428,-1.5514374,9.112915
-0.06285095,-1.5322723,9.108124
-0.034118652,-1.5083313,9.146439
0.032928467,-1.340744,9.184738
-0.058059692,-1.2736969,9.199112
0.018554688,-1.2880707,9.156006
0.052078247,-1.2210236,9.270935
0.08560181,-1.2162476,9.256561
0.09516907,-1.3072205,9.433731
0.018554688,-1.3742676,9.505569
-0.034118652,-1.4365082,9.625275
-0.08200073,-1.5562134,9.658798
-0.12988281,-1.5274963,9.701889
-0.25437927,-1.5418549,9.6875305
-0.28311157,-1.5466461,9.625275
-0.31184387,-1.5466461,9.625275
-0.35972595,-1.5179138,9.543869
-0.3549347,-1.5466461,9.462463
-0.37887573,-1.6041107,9.3954315
-0.3357849,-1.6184692,9.366699
-0.24002075,-1.7381744,9.318817
-0.25437927,-1.7908478,9.304459
-0.23522949,-1.8674622,9.40979
-0.24958801,-1.8674622,9.21347
-0.1490326,-1.953659,9.433731
-0.11073303,-1.9345093,9.141647
-0.048477173,-1.9009857,9.299667
-0.034118652,-1.8531036,9.151230000000002
0.028137207,-1.8147888,9.381073
0.09996033,-1.8674622,9.280502
0.052078247,-1.771698,9.242203000000002
0.047286987,-1.7764893,9.323608
0.09037781,-1.6807251,9.136856
0.004196167,-1.6472015,9.352341
0.004196167,-1.50354,9.21347
-0.034118652,-1.4891815,9.543869
-0.014968872,-1.4460907,9.462463
-0.11073303,-1.450882,9.476837
-0.1490326,-1.474823,9.606125
-0.16819763,-1.4365082,9.433731
-0.14424133,-1.455658,9.591751
-0.19213867,-1.474823,9.251785000000002
-0.16340637,-1.4939728,9.337967
-0.16340637,-1.5418549,9.208679
-0.15861511,-1.637619,9.194321
-0.18255615,-1.7860565,9.476837
-0.15382385,-1.8099976,9.194321
-0.12509155,-1.8531036,9.476837
-0.11073303,-1.8818359,9.2374115
-0.048477173,-1.8387299,9.242203000000002
-0.07720947,-1.8291626,9.433731
-0.048477173,-1.8099976,8.959685999999998
-0.048477173,-1.8626709,9.088974
-0.12988281,-1.8722534,8.883072
-0.10115051000000001,-1.8052216,8.998001
-0.12509155,-1.8674622,9.357117
-0.07241820999999998,-1.6998749,9.290085
-0.11552429,-1.6711426,9.500778
-0.024536133,-1.7860565,9.17038
-0.014968872,-1.8099976,9.275726
0.008987427,-1.7525482,9.203888
0.056869507,-1.7525482,9.088974
0.004196167,-1.8483124,9.23262
0.037704468,-1.9009857,9.088974
0.032928467,-1.9153442,9.0793915
0.09516907,-1.905777,9.203888
0.10954285,-1.7764893,9.021942
0.07601929,-1.7046661,9.261353
0.047286987,-1.6232605,9.160797
0.004196167,-1.637619,9.275726
-0.0005950928,-1.5705872,9.452896
-0.0053863525,-1.4604492,9.218262
-0.07241820999999998,-1.5227051,9.433731
-0.06285095,-1.5131226,9.266144
-0.06285095,-1.498764,9.270935
-0.11552429,-1.5370636,9.40979
-0.14424133,-1.5274963,9.294876
-0.13946533,-1.5657959,9.515137
-0.21607971,-1.5753784,9.347549
-0.20170593,-1.6232605,9.500778
-0.20649719,-1.6711426,9.510345
-0.25437927,-1.6472015,9.438522
-0.3214264,-1.6328278,9.606125
-0.2783203,-1.5849457,9.357117
-0.2783203,-1.4700317,9.481628
-0.31663513,-1.3742676,9.476837
-0.2926941,-1.3215942,9.318817
-0.24002075,-1.2689209,9.424164
-0.3262024,-1.1444092,9.175171
-0.25917053,-1.1444092,9.333176000000002
-0.25917053,-1.1348419,9.3954315
-0.25917053,-1.1300507,9.299667
-0.23522949,-1.1970825,9.495987
-0.25437927,-1.2641296,9.318817
-0.2783203,-1.2832794,9.3954315
-0.27352905,-1.2928619,9.405014
-0.23522949,-1.3694763,9.290085
-0.24958801,-1.474823,9.419373
-0.23522949,-1.4843903,9.2374115
-0.26875305,-1.5131226,9.452896
-0.2783203,-1.6041107,9.361908
-0.18734741,-1.6328278,9.184738
-0.24958801,-1.6663513,9.448105000000002
-0.24002075,-1.6424103,9.203888
-0.24958801,-1.5993195,9.405014
-0.25437927,-1.5993195,9.40979
-0.27352905,-1.5322723,9.299667
-0.34057617,-1.4412994,9.481628
-0.31663513,-1.479599,9.223053
-0.28790283,-1.6711426,9.524719
-0.24002075,-1.8243713,9.266144
-0.23522949,-1.905777,9.361908
-0.19213867,-1.9871826,9.472046
-0.053268433,-2.0063324,9.352341
-0.029327393,-1.9584503,9.457687000000002
0.028137207,-1.9440765,9.136856
0.12869263,-1.8387299,9.156006
0.11431885000000003,-1.8052216,9.256561
0.09516907,-1.7190247,9.117706
0.11911011,-1.747757,9.361908
0.12390137,-1.7381744,9.290085
0.12869263,-1.7046661,9.40979
0.10475159,-1.747757,9.428955
0.12869263,-1.6807251,9.093765
0.11431885000000003,-1.6424103,9.23262
0.10954285,-1.6567688,9.093765
0.10954285,-1.6711426,9.266144
0.10954285,-1.613678,9.199112
0.052078247,-1.5753784,9.122498
0.10475159,-1.5849457,9.242203000000002
0.052078247,-1.5322723,9.223053
0.056869507,-1.5657959,9.419373
0.09996033,-1.5945282,9.223053
0.06643677,-1.5849457,9.323608
-0.0005950928,-1.6280518,9.23262
0.032928467,-1.6472015,9.165588
0.028137207,-1.6902924,9.309235
-0.0005950928,-1.6424103,9.17038
-0.024536133,-1.6424103,9.3714905
0.018554688,-1.613678,9.088974
0.09037781,-1.6998749,9.223053
0.06643677,-1.7046661,9.1033325
0.061645508,-1.6855011,9.1033325
0.061645508,-1.6519928,9.261353
0.12390137,-1.6998749,9.065033
0.08560181,-1.6902924,9.275726
0.07601929,-1.6663513,9.1033325
-0.0005950928,-1.5801544,9.318817
-0.06762695000000002,-1.5514374,9.132065
-0.10115051000000001,-1.4460907,9.318817
-0.09635925,-1.4412994,9.366699
-0.08679199,-1.455658,9.165588
-0.048477173,-1.4317169,9.385849
-0.024536133,-1.4843903,9.2374115
-0.07241820999999998,-1.5466461,9.524719
-0.10115051000000001,-1.5418549,9.299667
-0.12988281,-1.5849457,9.457687000000002
-0.17297362999999996,-1.6280518,9.357117
-0.13467407,-1.6232605,9.424164
-0.15382385,-1.6519928,9.534302
-0.16819763,-1.6424103,9.472046
-0.22564697,-1.6567688,9.601334
-0.16819763,-1.637619,9.486404
-0.19691467,-1.6902924,9.515137
-0.19691467,-1.6663513,9.500778
-0.12988281,-1.6328278,9.424164
-0.1777649,-1.6280518,9.472046
-0.14424133,-1.6711426,9.438522
-0.17297362999999996,-1.7046661,9.385849
-0.1777649,-1.6663513,9.400223
-0.07720947,-1.6998749,9.381073
-0.12988281,-1.5705872,9.39064
-0.048477173,-1.6184692,9.3284
-0.11073303,-1.5849457,9.294876
-0.11552429,-1.637619,9.290085
-0.14424133,-1.6184692,9.21347
-0.14424133,-1.6232605,9.280502
-0.15382385,-1.6232605,9.208679
-0.1490326,-1.6280518,9.3284
-0.16819763,-1.6663513,9.242203000000002
-0.19213867,-1.6472015,9.290085
-0.22564697,-1.6328278,9.314026
-0.1777649,-1.6424103,9.39064
-0.18255615,-1.6424103,9.457687000000002
-0.18255615,-1.6041107,9.472046
-0.19213867,-1.613678,9.400223
-0.22564697,-1.6711426,9.500778
-0.18734741,-1.613678,9.457687000000002
-0.21128845,-1.5945282,9.443314
-0.22564697,-1.5897369,9.452896
-0.18734741,-1.5514374,9.366699
-0.21607971,-1.5993195,9.290085
-0.23043823,-1.6184692,9.251785000000002
-0.18734741,-1.6184692,9.266144
-0.13467407,-1.6663513,9.160797
-0.18255615,-1.6998749,9.323608
-0.13946533,-1.6711426,9.208679
-0.15861511,-1.7142334,9.189529
-0.16819763,-1.6998749,9.23262
-0.16340637,-1.6759338,9.299667
-0.15382385,-1.6711426,9.337967
-0.18255615,-1.6567688,9.333176000000002
-0.14424133,-1.6519928,9.376282
-0.16819763,-1.6902924,9.323608
-0.21607971,-1.6567688,9.309235
-0.22564697,-1.6855011,9.376282
-0.20649719,-1.6711426,9.433731
-0.22085571,-1.6424103,9.419373
-0.19213867,-1.6472015,9.357117
-0.19691467,-1.6232605,9.433731
-0.21128845,-1.5945282,9.357117
-0.14424133,-1.5418549,9.333176000000002
-0.19691467,-1.5657959,9.352341
-0.14424133,-1.5322723,9.299667
-0.18734741,-1.5322723,9.23262
-0.13946533,-1.4939728,9.242203000000002
-0.14424133,-1.498764,9.256561
-0.16340637,-1.5227051,9.2374115
-0.12509155,-1.474823,9.208679
-0.12030029,-1.4700317,9.227844
-0.14424133,-1.479599,9.275726
-0.08679199,-1.4125671,9.270935
-0.09158325,-1.4077759,9.323608
-0.08679199,-1.4604492,9.381073
-0.08200073,-1.4173584,9.314026
-0.07720947,-1.3742676,9.357117
-0.09635925,-1.3838348,9.342758
-0.06762695000000002,-1.3263702,9.285294
-0.014968872,-1.3742676,9.318817
-0.12030029,-1.3455353,9.261353
-0.09158325,-1.3455353,9.275726
-0.06285095,-1.3359528,9.285294
-0.07241820999999998,-1.3359528,9.242203000000002
-0.058059692,-1.3311615,9.314026
-0.048477173,-1.3263702,9.357117
-0.038909912,-1.340744,9.3714905
-0.053268433,-1.3120117,9.419373
-0.043685913,-1.3503113000000002,9.3714905
-0.13946533,-1.3790436,9.510345
-0.07241820999999998,-1.4269257,9.400223
-0.09635925,-1.455658,9.242203000000002
-0.06285095,-1.450882,9.108124
-0.06762695000000002,-1.5274963,8.988419
-0.08200073,-1.5227051,9.041092
-0.019744873,-1.5179138,9.21347
0.013763428,-1.5466461,9.156006
0.07122803,-1.6184692,9.184738
0.10475159,-1.6759338,9.21347
0.018554688,-1.6855011,9.294876
0.004196167,-1.6759338,9.290085
-0.014968872,-1.7190247,9.160797
-0.038909912,-1.7525482,9.160797
-0.11073303,-1.6902924,9.0793915
-0.12030029,-1.6950836,9.160797
-0.12988281,-1.7573395,9.246994
-0.10594177,-1.7908478,9.3954315
-0.1490326,-1.8004303,9.318817
-0.10594177,-1.7812805,9.337967
-0.12030029,-1.7381744,9.304459
-0.12030029,-1.7908478,9.246994
-0.08200073,-1.7621155,9.199112
-0.058059692,-1.7046661,9.156006
-0.09158325,-1.7094421,9.117706
-0.038909912,-1.6472015,9.065033
-0.058059692,-1.7046661,9.084183
-0.058059692,-1.6711426,9.175171
-0.10115051000000001,-1.7142334,9.246994
-0.07241820999999998,-1.7046661,9.261353
-0.16340637,-1.7046661,9.318817
-0.22085571,-1.7190247,9.337967
-0.16340637,-1.6950836,9.3284
-0.21607971,-1.6807251,9.347549
-0.22085571,-1.6807251,9.40979
-0.22564697,-1.6998749,9.500778
-0.25437927,-1.6328278,9.376282
-0.2974701,-1.6280518,9.376282
-0.28790283,-1.5945282,9.366699
-0.2974701,-1.5705872,9.56781
-0.3262024,-1.6088867,9.697098
-0.24481201,-1.5801544,9.385849
-0.22085571,-1.5514374,9.40979
-0.28311157,-1.5227051,9.443314
-0.25917053,-1.5370636,9.634857
-0.24958801,-1.5274963,9.634857
-0.20170593,-1.5466461,9.299667
-0.24481201,-1.5131226,9.596542
-0.18255615,-1.5418549,9.40979
-0.23043823,-1.5562134,9.495987
-0.24958801,-1.5179138,9.620483
-0.22564697,-1.5418549,9.39064
-0.22085571,-1.5705872,9.620483
-0.23522949,-1.5610046,9.361908
-0.20170593,-1.5227051,9.428955
-0.19691467,-1.5753784,9.443314
-0.19691467,-1.5514374,9.309235
-0.18255615,-1.5227051,9.347549
-0.1777649,-1.5753784,9.218262
-0.13467407,-1.5179138,9.290085
-0.15382385,-1.5466461,9.294876
-0.13946533,-1.5657959,9.304459
-0.13467407,-1.5083313,9.342758
-0.12030029,-1.5370636,9.127274
-0.08200073,-1.5657959,9.304459
-0.09635925,-1.5322723,9.242203000000002
-0.08200073,-1.5131226,9.261353
-0.09158325,-1.5274963,9.3284
-0.08200073,-1.5514374,9.227844
-0.043685913,-1.5610046,9.381073
-0.06762695000000002,-1.5179138,9.246994
-0.06285095,-1.5514374,9.23262
-0.058059692,-1.5514374,9.366699
-0.029327393,-1.5227051,9.156006
-0.014968872,-1.5993195,9.309235
0.008987427,-1.6472015,9.141647
-0.0005950928,-1.5562134,9.261353
-0.043685913,-1.6472015,9.381073
-0.024536133,-1.6328278,9.275726
-0.034118652,-1.6663513,9.606125
-0.053268433,-1.6855011,9.318817
-0.11073303,-1.6519928,9.481628
-0.13946533,-1.7333832,9.452896
-0.034118652,-1.7238159,9.199112
-0.11073303,-1.7525482,9.381073
-0.038909912,-1.7764893,9.223053
-0.0053863525,-1.7429657,9.361908
-0.034118652,-1.7525482,9.285294
-0.0053863525,-1.7573395,9.146439
-0.019744873,-1.7046661,9.314026
0.008987427,-1.7190247,9.069824
-0.0005950928,-1.6855011,9.223053
-0.014968872,-1.6663513,9.323608
-0.038909912,-1.7142334,9.261353
-0.058059692,-1.6711426,9.448105000000002
-0.053268433,-1.6567688,9.093765
-0.010177612,-1.66156,9.175171
-0.07720947,-1.7046661,9.156006
-0.043685913,-1.6328278,9.017151
-0.10115051000000001,-1.6424103,9.275726
-0.08679199,-1.6041107,9.112915
-0.07720947,-1.6567688,9.146439
-0.13946533,-1.613678,9.136856
-0.19213867,-1.5945282,9.21347
-0.17297362999999996,-1.5945282,9.21347
-0.12509155,-1.5993195,9.122498
-0.16819763,-1.5753784,9.299667
-0.18255615,-1.5897369,9.3714905
-0.15382385,-1.5562134,9.299667
-0.15861511,-1.5610046,9.294876
-0.19691467,-1.5131226,9.242203000000002
-0.22085571,-1.4843903,9.208679
-0.21607971,-1.50354,9.2374115
-0.21607971,-1.5179138,9.261353
-0.18734741,-1.455658,9.218262
-0.16819763,-1.474823,9.337967
-0.18255615,-1.5131226,9.275726
-0.21607971,-1.5131226,9.299667
-0.21128845,-1.5562134,9.318817
-0.1777649,-1.5083313,9.21347
-0.17297362999999996,-1.5179138,9.314026
-0.18255615,-1.5657959,9.366699
-0.22564697,-1.5657959,9.3714905
-0.22564697,-1.5657959,9.3954315
-0.20649719,-1.637619,9.428955
-0.20649719,-1.6280518,9.515137
-0.19213867,-1.6088867,9.495987
-0.21607971,-1.7094421,9.510345
-0.16819763,-1.7190247,9.39064
-0.16819763,-1.7333832,9.615692
-0.19691467,-1.7190247,9.323608
-0.1490326,-1.6998749,9.405014
-0.18734741,-1.747757,9.443314
-0.15382385,-1.7094421,9.261353
-0.20170593,-1.7094421,9.428955
-0.11073303,-1.7046661,9.223053
-0.10594177,-1.6902924,9.414581
-0.11073303,-1.7094421,9.160797
-0.1490326,-1.7142334,9.333176000000002
-0.12030029,-1.7046661,9.227844
-0.13467407,-1.6567688,9.194321
-0.1490326,-1.6855011,9.242203000000002
-0.16340637,-1.6472015,8.969269
-0.13467407,-1.637619,9.165588
-0.1490326,-1.6232605,8.825606999999998
-0.12509155,-1.6567688,8.993209999999998
-0.12509155,-1.613678,8.643646
-0.12509155,-1.6088867,8.820816
-0.15861511,-1.6280518,8.715485
-0.12988281,-1.5897369,8.85434
-0.12988281,-1.7046661,9.084183
-0.09635925,-1.637619,9.108124
-0.07720947,-1.637619,9.266144
-0.09635925,-1.6088867,9.189529
-0.08200073,-1.6041107,9.3284
-0.10115051000000001,-1.5993195,9.357117
-0.13467407,-1.6184692,9.352341
-0.12988281,-1.6088867,9.40979
-0.12509155,-1.6041107,9.419373
-0.13467407,-1.5849457,9.347549
-0.11073303,-1.6472015,9.443314
-0.13946533,-1.6759338,9.405014
-0.13467407,-1.7238159,9.452896
-0.13946533,-1.7573395,9.39064
-0.19691467,-1.7764893,9.40979
-0.19691467,-1.7764893,9.414581
-0.20649719,-1.8339539,9.443314
-0.13467407,-1.8578949,9.352341
-0.12988281,-1.9249268,9.314026
-0.1490326,-1.9153442,9.352341
-0.13946533,-1.8866119,9.323608
-0.16340637,-1.8674622,9.357117
-0.12509155,-1.8770447,9.419373
-0.09158325,-1.8291626,9.428955
-0.08200073,-1.8435211,9.385849
-0.09635925,-1.7764893,9.443314
-0.11073303,-1.7764893,9.438522
-0.13467407,-1.7381744,9.433731
-0.07241820999999998,-1.7190247,9.481628
-0.11073303,-1.771698,9.443314
-0.09635925,-1.6855011,9.491196
-0.11073303,-1.6711426,9.381073
-0.11073303,-1.6567688,9.448105000000002
-0.12030029,-1.6232605,9.457687000000002
-0.058059692,-1.66156,9.500778
-0.12988281,-1.6088867,9.577393
-0.12988281,-1.6041107,9.591751
-0.19213867,-1.6041107,9.505569
-0.17297362999999996,-1.5849457,9.553452
-0.25917053,-1.5562134,9.519928
-0.20649719,-1.5945282,9.433731
-0.22085571,-1.5753784,9.448105000000002
-0.21607971,-1.6041107,9.438522
-0.13467407,-1.6328278,9.290085
-0.1490326,-1.5897369,9.088974
-0.09635925,-1.637619,9.021942
-0.12030029,-1.5322723,9.0793915
-0.12988281,-1.5274963,9.304459
-0.07241820999999998,-1.5514374,9.400223
-0.038909912,-1.5705872,9.361908
-0.029327393,-1.4891815,9.304459
-0.010177612,-1.479599,9.242203000000002
-0.038909912,-1.455658,9.433731
-0.06285095,-1.498764,9.553452
-0.12030029,-1.5179138,9.419373
-0.1777649,-1.4843903,9.309235
-0.19691467,-1.5370636,9.218262
-0.22085571,-1.5370636,9.270935
-0.22564697,-1.5610046,9.433731
-0.22085571,-1.5705872,9.539078000000002
-0.16340637,-1.613678,9.543869
-0.16340637,-1.637619,9.357117
-0.12988281,-1.6519928,9.227844
-0.12509155,-1.6472015,9.136856
-0.12988281,-1.6280518,9.1033325
-0.12509155,-1.637619,9.045883
-0.08200073,-1.6711426,9.088974
-0.07241820999999998,-1.6902924,9.060242
-0.10594177,-1.7238159,9.112915
-0.12509155,-1.7381744,9.088974
-0.09635925,-1.7525482,9.151230000000002
-0.08200073,-1.6807251,9.165588
-0.10594177,-1.7142334,9.108124
-0.12030029,-1.7669067,9.199112
-0.12030029,-1.6663513,9.218262
-0.17297362999999996,-1.6567688,9.146439
-0.15861511,-1.637619,9.1033325
-0.16340637,-1.6472015,9.1033325
-0.19691467,-1.5466461,9.151230000000002
-0.1777649,-1.5657959,9.160797
-0.20170593,-1.5562134,9.208679
-0.19691467,-1.5705872,9.290085
-0.18734741,-1.5562134,9.246994
-0.24958801,-1.5849457,9.280502
-0.19213867,-1.5945282,9.337967
-0.23043823,-1.5897369,9.270935
-0.1490326,-1.5514374,9.366699
-0.21607971,-1.6232605,9.299667
-0.17297362999999996,-1.5657959,9.405014
-0.20170593,-1.6472015,9.342758
-0.17297362999999996,-1.66156,9.438522
