accX,accY,accZ
-0.029327393,-1.6232605,9.299667
-0.0053863525,-1.6424103,9.21347
-0.024536133,-1.6567688,9.385849
-0.0005950928,-1.6184692,9.203888
-0.07720947,-1.6711426,9.452896
-0.058059692,-1.613678,9.246994
-0.08200073,-1.5849457,9.357117
-0.09635925,-1.6567688,9.462463
0.004196167,-1.6519928,9.323608
-0.10594177,-1.6328278,9.452896
-0.029327393,-1.6280518,9.251785000000002
-0.06762695000000002,-1.613678,9.433731
-0.09635925,-1.6902924,9.433731
-0.12509155,-1.6280518,9.270935
-0.07720947,-1.6663513,9.491196
-0.15861511,-1.7333832,9.266144
-0.13946533,-1.7142334,9.457687000000002
-0.14424133,-1.7238159,9.572601
-0.10115051000000001,-1.6711426,9.337967
-0.17297362999999996,-1.6998749,9.577393
-0.14424133,-1.6902924,9.448105000000002
-0.12030029,-1.6663513,9.366699
-0.13467407,-1.6807251,9.519928
-0.043685913,-1.6519928,9.218262
-0.10594177,-1.613678,9.472046
-0.13946533,-1.6902924,9.361908
-0.11552429,-1.7046661,9.179947
-0.10115051000000001,-1.6424103,9.448105000000002
-0.048477173,-1.637619,9.2374115
-0.048477173,-1.6232605,9.333176000000002
-0.053268433,-1.6280518,9.462463
-0.038909912,-1.637619,9.218262
-0.11552429,-1.66156,9.505569
-0.06762695000000002,-1.6759338,9.366699
-0.053268433,-1.6663513,9.347549
-0.043685913,-1.637619,9.3954315
-0.053268433,-1.613678,9.266144
-0.13946533,-1.5801544,9.376282
-0.11073303,-1.5945282,9.256561
-0.06285095,-1.5993195,9.299667
-0.10115051000000001,-1.6184692,9.3284
-0.13467407,-1.5418549,9.127274
-0.11552429,-1.6088867,9.299667
-0.12988281,-1.5466461,9.21347
-0.12509155,-1.6041107,9.376282
-0.15382385,-1.6519928,9.452896
-0.10594177,-1.6567688,9.366699
-0.12030029,-1.637619,9.472046
-0.12030029,-1.66156,9.0985565
-0.09635925,-1.6472015,9.141647
-0.12509155,-1.7190247,9.117706
-0.08679199,-1.6711426,9.060242
-0.12988281,-1.7046661,9.452896
-0.053268433,-1.7333832,9.179947
-0.08200073,-1.6280518,9.39064
-0.10115051000000001,-1.7333832,9.21347
-0.15861511,-1.7142334,9.39064
-0.24481201,-1.7286072,9.3954315
-0.28311157,-1.7381744,8.993209999999998
-0.33099365,-1.7429657,9.175171
-0.2974701,-1.7094421,8.998001
-0.3070526,-1.747757,9.357117
-0.24958801,-1.7238159,9.630066
-0.20170593,-1.6902924,9.314026
-0.19691467,-1.6519928,9.462463
-0.16819763,-1.6184692,9.23262
-0.13946533,-1.5993195,9.2374115
-0.14424133,-1.6184692,9.323608
-0.18255615,-1.6328278,9.127274
-0.12509155,-1.5753784,9.290085
-0.13467407,-1.5753784,9.165588
-0.06762695000000002,-1.5562134,9.23262
-0.09158325,-1.5514374,9.266144
-0.10594177,-1.5610046,9.132065
-0.07720947,-1.5897369,9.3714905
-0.10115051000000001,-1.5993195,9.285294
-0.13467407,-1.6424103,9.405014
-0.14424133,-1.6184692,9.452896
-0.15861511,-1.6280518,9.405014
-0.19691467,-1.6088867,9.405014
-0.1777649,-1.613678,9.438522
-0.19213867,-1.5849457,9.385849
-0.12988281,-1.5897369,9.337967
-0.11073303,-1.5705872,9.294876
-0.12030029,-1.5945282,9.280502
-0.10594177,-1.5753784,9.39064
-0.058059692,-1.5753784,9.419373
-0.09635925,-1.6088867,9.290085
-0.12988281,-1.5705872,9.314026
-0.07720947,-1.5610046,9.314026
-0.043685913,-1.6041107,9.376282
-0.014968872,-1.6088867,9.242203000000002
-0.019744873,-1.6472015,9.275726
-0.019744873,-1.613678,9.189529
-0.06285095,-1.6855011,9.309235
-0.048477173,-1.6998749,9.304459
-0.058059692,-1.7238159,9.438522
-0.11073303,-1.7046661,9.3284
-0.038909912,-1.7525482,9.381073
-0.11552429,-1.7190247,9.39064
-0.13946533,-1.6328278,9.1033325
-0.12988281,-1.6424103,9.333176000000002
-0.15382385,-1.637619,9.428955
-0.09635925,-1.5801544,9.189529
-0.12988281,-1.6424103,9.3954315
-0.09635925,-1.5993195,9.165588
-0.11552429,-1.6519928,9.357117
-0.15861511,-1.6663513,9.323608
-0.12509155,-1.6711426,9.352341
-0.1777649,-1.6807251,9.452896
-0.1490326,-1.6855011,9.179947
-0.14424133,-1.6280518,9.428955
-0.12030029,-1.66156,9.270935
-0.12030029,-1.6567688,9.405014
-0.10594177,-1.6711426,9.357117
-0.07720947,-1.6328278,9.261353
-0.10594177,-1.6041107,9.337967
-0.08200073,-1.6519928,9.146439
-0.053268433,-1.613678,9.357117
-0.10594177,-1.6041107,9.184738
-0.11073303,-1.5610046,9.299667
-0.12030029,-1.5801544,9.347549
-0.07241820999999998,-1.5801544,9.280502
-0.12030029,-1.5945282,9.610916
-0.07720947,-1.613678,9.419373
-0.16819763,-1.637619,9.558243
-0.15861511,-1.6472015,9.476837
-0.12988281,-1.637619,9.333176000000002
-0.11073303,-1.637619,9.510345
-0.12509155,-1.6280518,9.261353
-0.1490326,-1.7286072,9.462463
-0.12030029,-1.66156,9.323608
-0.043685913,-1.637619,9.347549
-0.058059692,-1.6950836,9.242203000000002
-0.058059692,-1.6184692,9.227844
-0.07720947,-1.5610046,9.5295105
-0.12988281,-1.5849457,9.256561
-0.10115051000000001,-1.613678,9.342758
-0.14424133,-1.6184692,9.17038
-0.11073303,-1.6232605,9.21347
-0.10115051000000001,-1.6519928,9.304459
-0.17297362999999996,-1.6232605,9.179947
-0.1490326,-1.5849457,9.275726
-0.1777649,-1.6328278,9.112915
-0.16819763,-1.613678,9.203888
-0.1777649,-1.6232605,9.189529
-0.14424133,-1.5945282,9.031509
-0.24481201,-1.6184692,9.218262
-0.16340637,-1.5897369,9.227844
-0.24002075,-1.5466461,9.266144
-0.1777649,-1.5466461,9.299667
-0.25437927,-1.5514374,9.203888
-0.17297362999999996,-1.5993195,9.275726
-0.20170593,-1.5753784,9.266144
-0.19691467,-1.5897369,9.357117
-0.16340637,-1.5705872,9.314026
-0.20649719,-1.637619,9.448105000000002
-0.17297362999999996,-1.6424103,9.381073
-0.12030029,-1.6328278,9.333176000000002
-0.11552429,-1.6855011,9.491196
-0.11552429,-1.6519928,9.357117
-0.08679199,-1.6950836,9.342758
-0.12030029,-1.6807251,9.357117
-0.11073303,-1.6902924,9.347549
-0.043685913,-1.6759338,9.357117
-0.07720947,-1.6902924,9.347549
-0.08679199,-1.6759338,9.294876
-0.043685913,-1.6567688,9.270935
-0.043685913,-1.6424103,9.314026
-0.029327393,-1.6088867,9.314026
-0.019744873,-1.6041107,9.333176000000002
-0.048477173,-1.6280518,9.323608
-0.08679199,-1.637619,9.400223
-0.058059692,-1.6424103,9.39064
-0.019744873,-1.5801544,9.414581
-0.06762695000000002,-1.5753784,9.385849
-0.10594177,-1.5657959,9.424164
-0.058059692,-1.5562134,9.361908
-0.07241820999999998,-1.5801544,9.381073
-0.09158325,-1.5705872,9.385849
-0.13467407,-1.5322723,9.352341
-0.11073303,-1.5705872,9.40979
-0.08200073,-1.5322723,9.333176000000002
-0.12030029,-1.6280518,9.39064
-0.15861511,-1.6088867,9.347549
-0.11073303,-1.6088867,9.428955
-0.12988281,-1.5945282,9.424164
-0.09158325,-1.6232605,9.352341
-0.11073303,-1.6041107,9.366699
-0.13946533,-1.5562134,9.261353
-0.09158325,-1.5945282,9.270935
-0.12988281,-1.5418549,9.294876
-0.07241820999999998,-1.5753784,9.141647
-0.12509155,-1.5849457,9.117706
-0.1490326,-1.6328278,9.218262
-0.14424133,-1.5801544,9.194321
-0.11552429,-1.6232605,9.175171
-0.12030029,-1.6280518,9.208679
-0.12988281,-1.6424103,9.146439
-0.15861511,-1.6184692,9.208679
-0.12988281,-1.5801544,9.184738
-0.16340637,-1.5753784,9.23262
-0.12509155,-1.613678,9.189529
-0.20170593,-1.5897369,9.275726
-0.17297362999999996,-1.6424103,9.256561
-0.14424133,-1.5945282,9.314026
-0.16340637,-1.6184692,9.280502
-0.13946533,-1.6184692,9.314026
-0.15382385,-1.613678,9.385849
-0.14424133,-1.6280518,9.3954315
-0.15382385,-1.5849457,9.3714905
-0.12509155,-1.5657959,9.400223
-0.12509155,-1.5753784,9.3954315
-0.13467407,-1.498764,9.40979
-0.14424133,-1.5705872,9.40979
-0.10594177,-1.5179138,9.381073
-0.10115051000000001,-1.5514374,9.347549
-0.10594177,-1.5370636,9.352341
-0.08200073,-1.5610046,9.385849
-0.10594177,-1.5657959,9.357117
-0.058059692,-1.5610046,9.400223
-0.09158325,-1.5945282,9.3954315
-0.08200073,-1.5610046,9.40979
-0.12509155,-1.5897369,9.438522
-0.09158325,-1.5370636,9.400223
-0.13467407,-1.5753784,9.448105000000002
-0.08200073,-1.5610046,9.366699
-0.08200073,-1.5227051,9.304459
-0.10594177,-1.5562134,9.318817
-0.07720947,-1.5562134,9.314026
-0.12509155,-1.5370636,9.318817
-0.019744873,-1.5562134,9.357117
-0.07241820999999998,-1.5370636,9.352341
-0.08200073,-1.498764,9.309235
-0.058059692,-1.5131226,9.323608
-0.08200073,-1.50354,9.242203000000002
-0.058059692,-1.50354,9.242203000000002
-0.038909912,-1.5083313,9.3284
-0.038909912,-1.5227051,9.266144
-0.07720947,-1.4939728,9.285294
-0.12030029,-1.5562134,9.314026
-0.12509155,-1.5131226,9.261353
-0.09635925,-1.4843903,9.299667
-0.12509155,-1.479599,9.323608
-0.09635925,-1.4939728,9.270935
-0.09635925,-1.5562134,9.314026
-0.12030029,-1.5370636,9.428955
-0.10594177,-1.5322723,9.347549
-0.07241820999999998,-1.5274963,9.318817
-0.08679199,-1.5370636,9.314026
-0.10594177,-1.4939728,9.314026
-0.12030029,-1.4700317,9.17038
-0.10115051000000001,-1.4412994,9.208679
-0.12509155,-1.4460907,9.122498
-0.09635925,-1.450882,9.179947
-0.08679199,-1.4412994,9.203888
-0.10115051000000001,-1.474823,9.218262
-0.16819763,-1.5274963,9.227844
-0.17297362999999996,-1.498764,9.2374115
-0.10594177,-1.5131226,9.23262
-0.12988281,-1.5274963,9.069824
-0.12030029,-1.5705872,8.926163
-0.08679199,-1.5849457,8.935745
-0.08679199,-1.5370636,9.01236
-0.0053863525,-1.50354,9.088974
-0.029327393,-1.5562134,9.21347
0.037704468,-1.6088867,9.294876
-0.029327393,-1.613678,9.472046
-0.043685913,-1.6328278,9.601334
-0.09158325,-1.6519928,9.472046
-0.16819763,-1.6711426,9.381073
-0.20170593,-1.5993195,9.218262
-0.19213867,-1.6232605,9.270935
-0.20649719,-1.5849457,9.366699
-0.14424133,-1.6519928,9.515137
-0.18255615,-1.6519928,9.56781
-0.15861511,-1.6663513,9.582184
-0.17297362999999996,-1.6567688,9.3954315
-0.12030029,-1.6950836,9.318817
-0.09158325,-1.7238159,9.285294
-0.10115051000000001,-1.7094421,9.314026
-0.10115051000000001,-1.747757,9.127274
-0.08200073,-1.6472015,9.160797
-0.058059692,-1.6184692,9.0985565
-0.10594177,-1.6902924,9.246994
-0.13946533,-1.7333832,9.218262
-0.14424133,-1.7333832,9.419373
-0.16340637,-1.7046661,9.515137
-0.18255615,-1.6711426,9.280502
-0.18255615,-1.6567688,9.357117
-0.24958801,-1.5945282,9.491196
-0.2974701,-1.613678,9.333176000000002
-0.28790283,-1.5993195,9.510345
-0.2926941,-1.5418549,9.323608
-0.28311157,-1.5993195,9.400223
-0.2783203,-1.5657959,9.510345
-0.25437927,-1.5562134,9.290085
-0.28790283,-1.5083313,9.534302
-0.24481201,-1.5753784,9.405014
-0.21607971,-1.5753784,9.476837
-0.19213867,-1.6184692,9.539078000000002
-0.18734741,-1.5945282,9.352341
-0.16340637,-1.6088867,9.620483
-0.15382385,-1.5897369,9.3714905
-0.21128845,-1.5657959,9.534302
-0.11552429,-1.5753784,9.452896
-0.13467407,-1.5993195,9.414581
-0.08200073,-1.5801544,9.515137
-0.058059692,-1.5705872,9.381073
-0.11073303,-1.5801544,9.414581
-0.048477173,-1.5849457,9.342758
-0.06762695000000002,-1.5610046,9.323608
-0.07720947,-1.613678,9.428955
-0.038909912,-1.6041107,9.223053
-0.024536133,-1.5945282,9.357117
0.004196167,-1.5801544,9.242203000000002
0.004196167,-1.6280518,9.309235
-0.024536133,-1.66156,9.318817
0.013763428,-1.6280518,9.127274
-0.0053863525,-1.6663513,9.3284
-0.0053863525,-1.6663513,9.275726
-0.048477173,-1.7190247,9.314026
-0.019744873,-1.7190247,9.323608
-0.048477173,-1.7286072,9.242203000000002
-0.06285095,-1.7190247,9.357117
-0.07720947,-1.7286072,9.21347
-0.07241820999999998,-1.7046661,9.256561
-0.043685913,-1.7238159,9.318817
-0.06762695000000002,-1.6902924,9.0985565
-0.07241820999999998,-1.66156,9.194321
-0.08200073,-1.6855011,9.160797
-0.08679199,-1.637619,8.988419
-0.08679199,-1.6519928,9.184738
-0.053268433,-1.637619,9.208679
-0.15382385,-1.637619,9.275726
-0.10594177,-1.6088867,9.357117
-0.16340637,-1.6567688,9.366699
-0.17297362999999996,-1.6280518,9.290085
-0.1490326,-1.613678,9.218262
-0.12030029,-1.5993195,9.160797
-0.14424133,-1.613678,9.160797
-0.11552429,-1.6424103,9.184738
-0.12030029,-1.6232605,9.208679
-0.09158325,-1.5945282,9.093765
-0.1777649,-1.613678,9.299667
-0.12509155,-1.5849457,9.376282
-0.12988281,-1.5945282,9.299667
-0.15861511,-1.6041107,9.299667
-0.1777649,-1.5801544,9.400223
-0.15861511,-1.5514374,9.495987
-0.1777649,-1.5083313,9.500778
-0.13467407,-1.4939728,9.3714905
-0.16819763,-1.5514374,9.323608
-0.22085571,-1.50354,9.275726
-0.1490326,-1.5131226,9.299667
-0.19691467,-1.5322723,9.357117
-0.20649719,-1.6328278,9.357117
-0.13946533,-1.5801544,9.40979
-0.17297362999999996,-1.5993195,9.433731
-0.15861511,-1.6663513,9.40979
-0.13467407,-1.6184692,9.438522
-0.08200073,-1.6472015,9.366699
-0.15382385,-1.6184692,9.452896
-0.12030029,-1.6280518,9.400223
-0.12030029,-1.6328278,9.361908
-0.10115051000000001,-1.613678,9.318817
-0.10115051000000001,-1.613678,9.285294
-0.06285095,-1.6232605,9.318817
-0.10115051000000001,-1.6232605,9.21347
-0.09158325,-1.5993195,9.151230000000002
-0.11073303,-1.6088867,9.227844
-0.12509155,-1.6184692,9.242203000000002
-0.07720947,-1.6232605,9.3714905
-0.13467407,-1.7094421,9.361908
-0.09635925,-1.7142334,9.270935
-0.12030029,-1.6232605,9.39064
-0.13467407,-1.6328278,9.151230000000002
-0.17297362999999996,-1.6184692,9.294876
-0.24481201,-1.5849457,9.366699
-0.19691467,-1.6232605,9.165588
-0.24958801,-1.5945282,9.486404
-0.15382385,-1.6663513,9.141647
-0.20170593,-1.613678,9.400223
-0.24002075,-1.6567688,9.3714905
-0.2783203,-1.6567688,9.227844
-0.25437927,-1.6759338,9.376282
-0.25437927,-1.6998749,9.165588
-0.24481201,-1.66156,9.39064
-0.25917053,-1.6998749,9.318817
-0.25917053,-1.6759338,9.323608
-0.26875305,-1.6855011,9.40979
-0.24481201,-1.6519928,9.151230000000002
-0.22085571,-1.66156,9.352341
-0.1777649,-1.6855011,9.127274
-0.1777649,-1.6711426,9.3284
-0.16819763,-1.6663513,9.39064
-0.18734741,-1.6280518,9.160797
-0.13467407,-1.6424103,9.3714905
-0.15382385,-1.6759338,9.1033325
-0.1490326,-1.6472015,9.337967
-0.11073303,-1.7142334,9.294876
-0.058059692,-1.6519928,9.314026
-0.11552429,-1.6759338,9.40979
-0.053268433,-1.6807251,9.203888
-0.034118652,-1.6567688,9.438522
-0.043685913,-1.6519928,9.218262
-0.058059692,-1.637619,9.385849
-0.024536133,-1.6232605,9.462463
-0.06285095,-1.6472015,9.246994
-0.024536133,-1.637619,9.467255
-0.053268433,-1.6472015,9.242203000000002
0.008987427,-1.5945282,9.428955
-0.034118652,-1.613678,9.462463
-0.010177612,-1.6424103,9.242203000000002
-0.024536133,-1.6424103,9.414581
0.004196167,-1.5897369,9.184738
-0.038909912,-1.5945282,9.318817
-0.019744873,-1.5945282,9.352341
-0.053268433,-1.6232605,9.280502
-0.034118652,-1.6041107,9.385849
-0.053268433,-1.5514374,9.194321
-0.06762695000000002,-1.5945282,9.366699
-0.034118652,-1.6041107,9.227844
-0.058059692,-1.5562134,9.3954315
-0.07241820999999998,-1.5849457,9.299667
-0.12988281,-1.5514374,9.2374115
-0.13467407,-1.613678,9.337967
-0.13946533,-1.6280518,9.194321
-0.10594177,-1.6424103,9.318817
-0.12030029,-1.637619,9.299667
-0.12988281,-1.7046661,9.337967
-0.19691467,-1.6519928,9.318817
-0.17297362999999996,-1.637619,9.3284
-0.18255615,-1.6855011,9.361908
-0.21607971,-1.7238159,9.366699
-0.21607971,-1.7190247,9.352341
-0.21607971,-1.6711426,9.337967
-0.22085571,-1.6855011,9.347549
-0.23522949,-1.6184692,9.304459
-0.22564697,-1.6472015,9.285294
-0.21607971,-1.6184692,9.270935
-0.20170593,-1.613678,9.323608
-0.23043823,-1.66156,9.280502
-0.23043823,-1.6088867,9.347549
-0.25437927,-1.6567688,9.290085
-0.19213867,-1.6663513,9.323608
-0.25917053,-1.637619,9.476837
-0.21128845,-1.6088867,9.342758
-0.24481201,-1.6041107,9.40979
-0.24958801,-1.637619,9.361908
-0.20649719,-1.5514374,9.40979
-0.23522949,-1.6184692,9.275726
-0.16819763,-1.5705872,9.333176000000002
-0.15861511,-1.6088867,9.309235
-0.15861511,-1.6328278,9.309235
-0.17297362999999996,-1.637619,9.270935
-0.14424133,-1.6519928,9.280502
-0.12988281,-1.637619,9.352341
-0.11073303,-1.6711426,9.342758
-0.1490326,-1.613678,9.361908
-0.10115051000000001,-1.6280518,9.299667
-0.12988281,-1.6280518,9.400223
-0.14424133,-1.6088867,9.472046
-0.1777649,-1.6088867,9.424164
-0.13467407,-1.6567688,9.457687000000002
-0.12509155,-1.6424103,9.486404
-0.14424133,-1.6232605,9.58696
-0.10594177,-1.6472015,9.476837
-0.10594177,-1.6472015,9.428955
-0.07720947,-1.6232605,9.246994
-0.034118652,-1.5849457,9.132065
-0.06285095,-1.6328278,9.088974
-0.038909912,-1.5993195,9.1033325
0.032928467,-1.5993195,9.246994
-0.010177612,-1.6041107,9.160797
0.018554688,-1.6232605,9.21347
0.047286987,-1.637619,9.21347
-0.034118652,-1.5897369,9.318817
-0.11073303,-1.6711426,9.290085
-0.15861511,-1.6902924,9.208679
-0.17297362999999996,-1.6472015,9.0985565
-0.24002075,-1.6041107,9.184738
-0.15861511,-1.6088867,9.299667
-0.1777649,-1.6280518,9.524719
-0.13467407,-1.6088867,9.658798
-0.11552429,-1.6088867,9.582184
-0.10594177,-1.5945282,9.58696
-0.048477173,-1.5993195,9.481628
-0.053268433,-1.5753784,9.438522
-0.11073303,-1.5610046,9.309235
-0.14424133,-1.5227051,9.266144
-0.11552429,-1.498764,9.3284
-0.11073303,-1.4652405,9.223053
-0.10115051000000001,-1.474823,9.175171
-0.09158325,-1.5083313,9.270935
-0.08679199,-1.474823,9.189529
-0.11073303,-1.5322723,9.194321
-0.14424133,-1.5322723,9.227844
-0.18255615,-1.4939728,9.160797
-0.15861511,-1.4939728,9.270935
-0.16819763,-1.479599,9.304459
-0.21607971,-1.4460907,9.304459
-0.25917053,-1.4700317,9.347549
-0.20170593,-1.4843903,9.3714905
-0.19691467,-1.4604492,9.40979
-0.20170593,-1.4891815,9.381073
-0.16340637,-1.4891815,9.361908
-0.19213867,-1.4939728,9.40979
-0.13467407,-1.5179138,9.467255
-0.14424133,-1.5179138,9.515137
-0.11073303,-1.5227051,9.543869
-0.12509155,-1.5322723,9.481628
-0.13946533,-1.5945282,9.510345
-0.12988281,-1.5514374,9.39064
-0.15382385,-1.5753784,9.476837
-0.12988281,-1.5514374,9.39064
-0.13467407,-1.637619,9.342758
-0.14424133,-1.6328278,9.342758
-0.12030029,-1.6088867,9.323608
-0.15382385,-1.6328278,9.251785000000002
-0.1490326,-1.6280518,9.266144
-0.06285095,-1.5993195,9.227844
-0.10594177,-1.5945282,9.261353
-0.07241820999999998,-1.5753784,9.246994
-0.09635925,-1.5274963,9.342758
-0.043685913,-1.5705872,9.347549
-0.11552429,-1.5131226,9.414581
-0.1490326,-1.5897369,9.342758
-0.06285095,-1.5753784,9.428955
-0.034118652,-1.5274963,9.366699
-0.07241820999999998,-1.5418549,9.400223
-0.13946533,-1.5466461,9.275726
-0.11552429,-1.5083313,9.261353
-0.07720947,-1.5418549,9.299667
-0.09158325,-1.5227051,9.333176000000002
-0.08679199,-1.5131226,9.366699
-0.06285095,-1.474823,9.448105000000002
-0.06285095,-1.4843903,9.39064
-0.12988281,-1.455658,9.428955
-0.11073303,-1.4412994,9.304459
-0.08200073,-1.4604492,9.333176000000002
-0.06762695000000002,-1.4029846,9.347549
-0.12509155,-1.4221497,9.246994
-0.08200073,-1.3742676,9.333176000000002
-0.10115051000000001,-1.3934174,9.309235
-0.13946533,-1.4412994,9.438522
-0.1490326,-1.4412994,9.433731
-0.1490326,-1.4365082,9.495987
-0.15382385,-1.4939728,9.596542
-0.13467407,-1.479599,9.472046
-0.14424133,-1.479599,9.357117
-0.12030029,-1.4891815,9.400223
-0.12509155,-1.5179138,9.462463
-0.10594177,-1.5131226,9.3954315
-0.038909912,-1.5131226,9.290085
-0.0005950928,-1.5131226,9.337967
-0.019744873,-1.5227051,9.266144
-0.053268433,-1.5227051,9.352341
-0.053268433,-1.5370636,9.357117
-0.034118652,-1.5418549,9.290085
-0.014968872,-1.5322723,9.21347
-0.07241820999999998,-1.5227051,9.3284
-0.10115051000000001,-1.5514374,9.266144
-0.13467407,-1.4939728,9.323608
-0.1490326,-1.5227051,9.337967
-0.16340637,-1.5179138,9.223053
-0.13467407,-1.4939728,9.251785000000002
-0.13946533,-1.5179138,9.203888
-0.12509155,-1.5131226,9.23262
-0.13946533,-1.4604492,9.184738
-0.13946533,-1.4843903,9.146439
-0.11552429,-1.4700317,9.218262
-0.12988281,-1.5083313,9.285294
-0.09158325,-1.5131226,9.17038
-0.07720947,-1.455658,9.314026
-0.07720947,-1.455658,9.294876
-0.06762695000000002,-1.4221497,9.314026
-0.11073303,-1.4604492,9.285294
-0.09635925,-1.4652405,9.323608
-0.043685913,-1.5083313,9.323608
-0.10115051000000001,-1.4843903,9.3954315
-0.08679199,-1.479599,9.318817
-0.058059692,-1.4843903,9.385849
-0.09635925,-1.450882,9.266144
-0.06285095,-1.4939728,9.184738
-0.07241820999999998,-1.4939728,9.179947
-0.038909912,-1.5179138,9.199112
-0.043685913,-1.5801544,9.1033325
-0.10115051000000001,-1.6041107,9.184738
-0.08200073,-1.5466461,9.352341
-0.11073303,-1.5657959,9.323608
-0.09158325,-1.5562134,9.347549
-0.12030029,-1.5610046,9.381073
-0.12988281,-1.5370636,9.405014
-0.10115051000000001,-1.5322723,9.3954315
-0.12988281,-1.5274963,9.519928
-0.12509155,-1.5466461,9.337967
-0.12509155,-1.5562134,9.462463
-0.13467407,-1.5610046,9.433731
-0.048477173,-1.4939728,9.467255
-0.13946533,-1.5705872,9.419373
-0.1490326,-1.5849457,9.419373
-0.15861511,-1.5705872,9.433731
-0.11552429,-1.5801544,9.438522
-0.12030029,-1.5849457,9.337967
-0.12509155,-1.5562134,9.491196
-0.08679199,-1.6232605,9.304459
-0.12988281,-1.5705872,9.189529
-0.09635925,-1.5562134,9.385849
-0.09635925,-1.5753784,9.299667
-0.1777649,-1.5514374,9.400223
-0.14424133,-1.5322723,9.381073
-0.09158325,-1.498764,9.156006
-0.19691467,-1.5705872,9.357117
-0.09635925,-1.5514374,9.323608
-0.18255615,-1.5227051,9.314026
-0.1490326,-1.5418549,9.428955
-0.13946533,-1.5897369,9.160797
-0.12030029,-1.5370636,9.433731
-0.13946533,-1.5274963,9.481628
-0.12509155,-1.5945282,9.21347
-0.1777649,-1.5370636,9.414581
-0.1777649,-1.5801544,9.352341
-0.21607971,-1.5322723,9.337967
-0.16340637,-1.5705872,9.424164
-0.19691467,-1.5179138,9.151230000000002
-0.15382385,-1.5657959,9.285294
-0.13467407,-1.5993195,9.309235
-0.14424133,-1.5993195,9.242203000000002
-0.15861511,-1.5945282,9.309235
-0.10594177,-1.6328278,9.246994
-0.13946533,-1.6519928,9.39064
-0.12509155,-1.6519928,9.318817
-0.11552429,-1.613678,9.3954315
-0.16340637,-1.6232605,9.376282
-0.10594177,-1.6280518,9.246994
-0.12509155,-1.6280518,9.342758
-0.11552429,-1.6041107,9.366699
-0.10115051000000001,-1.6328278,9.227844
-0.06762695000000002,-1.6472015,9.2374115
-0.058059692,-1.5897369,9.151230000000002
-0.048477173,-1.5753784,9.342758
-0.029327393,-1.5993195,9.323608
-0.053268433,-1.5993195,9.203888
-0.024536133,-1.5801544,9.400223
0.032928467,-1.6184692,9.218262
-0.024536133,-1.5849457,9.242203000000002
-0.058059692,-1.6232605,9.314026
-0.07241820999999998,-1.5993195,9.23262
-0.08200073,-1.5945282,9.381073
-0.11073303,-1.5849457,9.314026
-0.08679199,-1.6184692,9.357117
-0.13467407,-1.5945282,9.376282
-0.14424133,-1.6041107,9.381073
-0.12509155,-1.5562134,9.400223
-0.12988281,-1.6088867,9.467255
-0.13467407,-1.5705872,9.462463
-0.13946533,-1.5657959,9.539078000000002
-0.11073303,-1.5705872,9.467255
-0.11552429,-1.5945282,9.323608
-0.13467407,-1.5610046,9.227844
-0.11552429,-1.5131226,9.160797
-0.053268433,-1.5801544,9.270935
-0.11073303,-1.5705872,9.333176000000002
-0.048477173,-1.5322723,9.337967
-0.06762695000000002,-1.5418549,9.381073
-0.09158325,-1.5418549,9.385849
-0.13946533,-1.5466461,9.524719
-0.16340637,-1.5801544,9.352341
-0.24481201,-1.5370636,9.184738
-0.30226135,-1.5801544,9.093765
-0.31663513,-1.5705872,9.151230000000002
-0.24002075,-1.5801544,9.352341
-0.24002075,-1.6472015,9.510345
-0.19213867,-1.637619,9.524719
-0.15861511,-1.6950836,9.500778
-0.19213867,-1.7046661,9.381073
-0.14424133,-1.6567688,9.299667
-0.17297362999999996,-1.66156,9.256561
-0.11552429,-1.6232605,9.184738
-0.15382385,-1.5897369,9.1033325
-0.08200073,-1.5562134,9.093765
-0.06285095,-1.5322723,9.050659
-0.043685913,-1.5849457,9.1033325
-0.09158325,-1.5514374,9.189529
-0.029327393,-1.5610046,9.218262
-0.16819763,-1.5801544,9.218262
-0.08679199,-1.613678,9.2374115
-0.18734741,-1.5945282,9.270935
-0.20170593,-1.5849457,9.304459
-0.15382385,-1.66156,9.405014
-0.18255615,-1.6041107,9.376282
-0.18255615,-1.6424103,9.457687000000002
-0.22085571,-1.5705872,9.184738
-0.19691467,-1.5083313,9.347549
-0.22564697,-1.50354,9.448105000000002
-0.19213867,-1.455658,9.299667
-0.15382385,-1.4891815,9.448105000000002
-0.14424133,-1.5514374,9.261353
-0.13946533,-1.5418549,9.476837
-0.10115051000000001,-1.5610046,9.448105000000002
-0.15861511,-1.6088867,9.428955
-0.08679199,-1.5993195,9.505569
-0.053268433,-1.5897369,9.270935
-0.08679199,-1.6280518,9.414581
-0.06285095,-1.6567688,9.275726
-0.09158325,-1.6472015,9.385849
-0.12988281,-1.5993195,9.433731
-0.09158325,-1.637619,9.23262
-0.10594177,-1.6328278,9.40979
-0.06762695000000002,-1.6328278,9.194321
-0.09158325,-1.6472015,9.309235
-0.09158325,-1.5993195,9.294876
-0.07241820999999998,-1.6328278,9.275726
-0.11073303,-1.5801544,9.467255
-0.06762695000000002,-1.6088867,9.261353
-0.06285095,-1.6519928,9.443314
-0.11073303,-1.5753784,9.261353
-0.12509155,-1.5993195,9.304459
-0.09635925,-1.5705872,9.3954315
-0.15861511,-1.5993195,9.280502
-0.17297362999999996,-1.6088867,9.472046
-0.17297362999999996,-1.6328278,9.309235
-0.20649719,-1.5897369,9.428955
-0.22085571,-1.6088867,9.352341
-0.21128845,-1.5945282,9.3284
-0.23522949,-1.6041107,9.486404
-0.19213867,-1.5945282,9.299667
-0.25437927,-1.5514374,9.3714905
-0.23043823,-1.6232605,9.251785000000002
-0.18255615,-1.5418549,9.304459
-0.22564697,-1.5179138,9.218262
-0.21607971,-1.5514374,9.0793915
-0.22085571,-1.5466461,9.309235
-0.19691467,-1.5705872,9.218262
-0.20649719,-1.5993195,9.299667
-0.20170593,-1.5897369,9.424164
-0.18734741,-1.5753784,9.203888
-0.23043823,-1.6184692,9.309235
-0.24002075,-1.6663513,9.227844
-0.20649719,-1.66156,9.21347
-0.15861511,-1.66156,9.2374115
-0.12988281,-1.6855011,9.199112
-0.1490326,-1.7046661,9.223053
-0.08679199,-1.637619,9.199112
-0.07720947,-1.6519928,9.242203000000002
-0.09635925,-1.637619,9.261353
-0.09158325,-1.6328278,9.323608
-0.07241820999999998,-1.66156,9.352341
-0.043685913,-1.6472015,9.304459
-0.06285095,-1.6184692,9.294876
-0.09635925,-1.6041107,9.256561
-0.09158325,-1.5993195,9.242203000000002
-0.08200073,-1.5562134,9.314026
-0.11552429,-1.6280518,9.352341
-0.09635925,-1.5801544,9.357117
-0.11552429,-1.5897369,9.347549
-0.13946533,-1.5849457,9.352341
-0.07241820999999998,-1.5897369,9.352341
-0.11073303,-1.5705872,9.400223
-0.09635925,-1.5322723,9.433731
-0.06762695000000002,-1.5131226,9.40979
-0.06762695000000002,-1.450882,9.385849
-0.12988281,-1.4077759,9.361908
-0.12509155,-1.3838348,9.309235
-0.10115051000000001,-1.3742676,9.347549
-0.09635925,-1.3982086,9.357117
-0.08200073,-1.4604492,9.337967
-0.11073303,-1.4365082,9.376282
-0.09635925,-1.4939728,9.337967
-0.12509155,-1.5227051,9.337967
-0.07720947,-1.498764,9.376282
-0.12509155,-1.5514374,9.314026
-0.13946533,-1.5657959,9.294876
-0.12030029,-1.5753784,9.318817
-0.17297362999999996,-1.5657959,9.261353
-0.11073303,-1.5657959,9.270935
-0.06285095,-1.6472015,9.318817
-0.13467407,-1.6088867,9.280502
-0.11552429,-1.5753784,9.261353
-0.15382385,-1.6711426,9.194321
-0.11073303,-1.6280518,9.261353
-0.16819763,-1.6711426,9.304459
-0.17297362999999996,-1.6519928,9.3284
-0.12030029,-1.6998749,9.3284
-0.13467407,-1.6759338,9.261353
-0.1490326,-1.66156,9.309235
-0.15861511,-1.6519928,9.3284
-0.14424133,-1.6280518,9.323608
-0.13946533,-1.6472015,9.347549
-0.12988281,-1.5945282,9.3284
-0.19691467,-1.5993195,9.333176000000002
-0.15861511,-1.5897369,9.218262
-0.19213867,-1.6232605,9.21347
-0.20649719,-1.637619,9.290085
-0.1777649,-1.6280518,9.275726
-0.18255615,-1.6855011,9.266144
-0.16340637,-1.6328278,9.299667
-0.23522949,-1.637619,9.275726
-0.15861511,-1.6711426,9.280502
-0.15861511,-1.6424103,9.242203000000002
-0.1490326,-1.5993195,9.280502
-0.16340637,-1.6232605,9.294876
-0.1490326,-1.6328278,9.285294
-0.17297362999999996,-1.5466461,9.309235
-0.18734741,-1.5514374,9.337967
-0.16340637,-1.5897369,9.314026
-0.20649719,-1.5514374,9.342758
-0.1490326,-1.5657959,9.376282
-0.16340637,-1.5466461,9.419373
-0.18255615,-1.5945282,9.337967
-0.16340637,-1.5801544,9.342758
-0.18255615,-1.5753784,9.39064
-0.18734741,-1.6041107,9.3954315
-0.16819763,-1.5657959,9.280502
-0.15382385,-1.5562134,9.376282
-0.20649719,-1.5562134,9.3284
-0.23522949,-1.5131226,9.361908
-0.19213867,-1.6232605,9.3954315
-0.1777649,-1.5657959,9.285294
-0.21128845,-1.50354,9.3714905
-0.16819763,-1.5274963,9.347549
-0.17297362999999996,-1.5466461,9.352341
-0.11552429,-1.5657959,9.347549
-0.15861511,-1.5514374,9.381073
-0.1490326,-1.5801544,9.342758
-0.08679199,-1.5801544,9.304459
-0.12988281,-1.5993195,9.294876
-0.12030029,-1.5274963,9.275726
-0.09158325,-1.5418549,9.3284
-0.14424133,-1.5753784,9.333176000000002
-0.08679199,-1.5945282,9.347549
-0.08679199,-1.637619,9.352341
-0.09635925,-1.5897369,9.318817
-0.12030029,-1.5897369,9.309235
-0.06285095,-1.5945282,9.261353
-0.09635925,-1.6088867,9.333176000000002
-0.053268433,-1.6472015,9.318817
-0.08200073,-1.6041107,9.318817
-0.09635925,-1.613678,9.266144
-0.11073303,-1.6472015,9.218262
-0.11552429,-1.5897369,9.246994
-0.11552429,-1.6184692,9.270935
-0.058059692,-1.5945282,9.179947
-0.12030029,-1.6280518,9.223053
-0.07241820999999998,-1.6663513,9.208679
-0.11552429,-1.6232605,9.218262
-0.11073303,-1.6328278,9.21347
-0.07720947,-1.6041107,9.218262
-0.10115051000000001,-1.6184692,9.122498
-0.14424133,-1.5657959,9.108124
-0.12988281,-1.6567688,9.069824
-0.1490326,-1.6328278,9.179947
-0.09158325,-1.6184692,9.223053
-0.12509155,-1.5849457,9.299667
-0.14424133,-1.6088867,9.242203000000002
-0.058059692,-1.6280518,9.318817
-0.13467407,-1.5945282,9.2374115
-0.11552429,-1.5753784,9.294876
-0.15382385,-1.5945282,9.314026
-0.12030029,-1.6184692,9.261353
-0.10594177,-1.5705872,9.280502
-0.11552429,-1.613678,9.270935
-0.15861511,-1.6088867,9.227844
-0.16819763,-1.5801544,9.294876
-0.14424133,-1.5945282,9.361908
-0.15861511,-1.6184692,9.3714905
-0.15382385,-1.5993195,9.3954315
-0.19691467,-1.637619,9.151230000000002
-0.12988281,-1.6759338,9.031509
-0.11552429,-1.6232605,8.945328
-0.14424133,-1.6328278,9.208679
-0.09158325,-1.66156,9.309235
-0.06285095,-1.637619,9.275726
-0.053268433,-1.6280518,9.419373
-0.09158325,-1.6472015,9.400223
-0.14424133,-1.6950836,9.70668
-0.1777649,-1.66156,9.290085
-0.22564697,-1.6567688,9.428955
-0.28311157,-1.6519928,9.2374115
-0.23522949,-1.6998749,9.050659
-0.31184387,-1.6041107,9.3714905
-0.28311157,-1.7286072,9.510345
-0.23043823,-1.7046661,9.759354
-0.22085571,-1.747757,9.558243
-0.18255615,-1.7190247,9.246994
-0.1490326,-1.7573395,9.361908
-0.12988281,-1.7333832,9.524719
-0.09158325,-1.7381744,9.203888
-0.09635925,-1.7046661,9.318817
-0.053268433,-1.7190247,9.40979
-0.07720947,-1.6663513,9.194321
-0.11073303,-1.7142334,9.419373
-0.10594177,-1.7094421,9.486404
-0.11073303,-1.6855011,9.256561
-0.11073303,-1.7333832,9.476837
-0.16819763,-1.66156,9.414581
-0.16819763,-1.6950836,9.304459
-0.1777649,-1.6472015,9.381073
-0.20170593,-1.5993195,9.438522
-0.22564697,-1.5993195,9.438522
-0.22564697,-1.5705872,9.414581
-0.19691467,-1.6088867,9.39064
-0.18734741,-1.6041107,9.366699
-0.16340637,-1.5274963,9.294876
-0.18734741,-1.5322723,9.400223
-0.12509155,-1.5753784,9.352341
-0.08200073,-1.5179138,9.352341
-0.10594177,-1.479599,9.347549
-0.10115051000000001,-1.5610046,9.333176000000002
-0.09635925,-1.5370636,9.357117
-0.058059692,-1.5466461,9.285294
-0.10594177,-1.4939728,9.318817
-0.1490326,-1.455658,9.256561
-0.10115051000000001,-1.5179138,9.242203000000002
-0.10594177,-1.5179138,9.199112
-0.10115051000000001,-1.5322723,9.285294
-0.11073303,-1.5562134,9.309235
-0.12030029,-1.5945282,9.294876
-0.11552429,-1.5993195,9.304459
-0.12988281,-1.6663513,9.290085
-0.09158325,-1.6184692,9.280502
-0.07241820999999998,-1.6184692,9.261353
-0.12988281,-1.6232605,9.290085
-0.058059692,-1.6519928,9.270935
-0.07241820999999998,-1.6711426,9.333176000000002
-0.10594177,-1.6232605,9.424164
-0.09158325,-1.6950836,9.3284
-0.1490326,-1.6902924,9.347549
-0.13946533,-1.637619,9.246994
-0.12030029,-1.6902924,9.294876
-0.12988281,-1.7094421,9.443314
-0.07720947,-1.7238159,9.400223
-0.07241820999999998,-1.7142334,9.381073
-0.09158325,-1.7573395,9.275726
-0.034118652,-1.7238159,9.376282
-0.038909912,-1.7669067,9.361908
-0.13946533,-1.6567688,9.031509
-0.11073303,-1.6041107,9.242203000000002
-0.09158325,-1.5849457,9.093765
-0.08679199,-1.6280518,9.223053
-0.13467407,-1.6088867,9.194321
-0.12988281,-1.66156,8.978835999999998
-0.15861511,-1.6280518,9.366699
-0.16340637,-1.66156,9.3954315
-0.18255615,-1.6567688,9.448105000000002
-0.18734741,-1.7381744,9.433731
-0.19691467,-1.66156,9.146439
-0.18255615,-1.6902924,9.294876
-0.1777649,-1.6759338,9.175171
-0.1490326,-1.6759338,9.3284
-0.19213867,-1.613678,9.304459
-0.10115051000000001,-1.5993195,9.146439
-0.11552429,-1.6280518,9.136856
-0.11552429,-1.5610046,9.069824
-0.08200073,-1.6041107,9.472046
-0.11073303,-1.6232605,9.419373
-0.10115051000000001,-1.5322723,9.203888
-0.11073303,-1.5131226,9.261353
-0.10115051000000001,-1.5753784,9.21347
-0.12509155,-1.5657959,9.3714905
-0.12030029,-1.613678,9.448105000000002
-0.12509155,-1.5897369,9.275726
-0.12988281,-1.5801544,9.510345
-0.12988281,-1.5801544,9.400223
-0.13946533,-1.5562134,9.270935
-0.16819763,-1.5562134,9.472046
-0.18734741,-1.5945282,9.218262
-0.19691467,-1.6041107,9.563019
-0.12509155,-1.5514374,9.366699
-0.1490326,-1.5849457,9.242203000000002
-0.15861511,-1.5562134,9.457687000000002
-0.1490326,-1.5179138,9.299667
-0.1777649,-1.5993195,9.400223
-0.1490326,-1.5993195,9.337967
-0.13467407,-1.5657959,9.199112
-0.13946533,-1.5466461,9.357117
-0.07720947,-1.5801544,9.3284
-0.15382385,-1.6088867,9.486404
-0.11073303,-1.6041107,9.428955
-0.06285095,-1.66156,9.208679
-0.12988281,-1.5993195,9.337967
-0.11552429,-1.5849457,9.218262
-0.12988281,-1.6567688,9.400223
-0.18255615,-1.6328278,9.251785000000002
-0.14424133,-1.6041107,9.280502
-0.13467407,-1.6424103,9.23262
-0.16819763,-1.637619,9.199112
-0.16819763,-1.6424103,9.304459
-0.21607971,-1.7094421,9.227844
-0.18734741,-1.7621155,9.337967
-0.18255615,-1.7190247,9.318817
-0.18734741,-1.7190247,9.136856
-0.22085571,-1.66156,9.299667
-0.1777649,-1.6855011,9.261353
-0.15382385,-1.66156,9.290085
-0.1777649,-1.6855011,9.256561
-0.1777649,-1.637619,9.151230000000002
-0.16819763,-1.6232605,9.333176000000002
-0.13467407,-1.7046661,9.069824
